subject_ID,dog_name,sex,breed,player,displacer,birthdate,date_experiment,age_months,block,trial,condition,correct_choice,response_SM,response_second_coder,latency_SM
subj_01,Eowyn,F,mix_terrier,SM,MS,24/10/2017,12/04/2021,41,1,1,false_belief,stay,move,,1.12
subj_01,Eowyn,F,mix_terrier,SM,MS,24/10/2017,12/04/2021,41,1,2,training_wait,stay,move,,2.35
subj_01,Eowyn,F,mix_terrier,SM,MS,24/10/2017,12/04/2021,41,1,3,training_go,move,move,,3.9
subj_01,Eowyn,F,mix_terrier,SM,MS,24/10/2017,12/04/2021,41,1,4,true_belief,move,move,,2.13
subj_01,Eowyn,F,mix_terrier,SM,MS,24/10/2017,12/04/2021,41,1,5,training_go,move,move,,2.72
subj_01,Eowyn,F,mix_terrier,SM,MS,24/10/2017,12/04/2021,41,1,6,training_wait,stay,stay,,9.7
subj_01,Eowyn,F,mix_terrier,SM,MS,24/10/2017,12/04/2021,41,2,1,true_belief,move,move,,1.42
subj_01,Eowyn,F,mix_terrier,SM,MS,24/10/2017,12/04/2021,41,2,2,training_go,move,move,,2.32
subj_01,Eowyn,F,mix_terrier,SM,MS,24/10/2017,12/04/2021,41,2,3,training_wait,stay,stay,,9.55
subj_01,Eowyn,F,mix_terrier,SM,MS,24/10/2017,12/04/2021,41,2,4,false_belief,stay,move,,2.37
subj_01,Eowyn,F,mix_terrier,SM,MS,24/10/2017,12/04/2021,41,2,5,training_wait,stay,stay,,9.75
subj_01,Eowyn,F,mix_terrier,SM,MS,24/10/2017,12/04/2021,41,2,6,training_go,move,stay,,10.3
subj_01,Eowyn,F,mix_terrier,SM,MS,24/10/2017,12/04/2021,41,3,1,true_belief,move,move,,2.38
subj_01,Eowyn,F,mix_terrier,SM,MS,24/10/2017,12/04/2021,41,3,2,training_wait,stay,stay,,9.68
subj_01,Eowyn,F,mix_terrier,SM,MS,24/10/2017,12/04/2021,41,3,3,training_go,move,move,,2.73
subj_01,Eowyn,F,mix_terrier,SM,MS,24/10/2017,12/04/2021,41,3,4,false_belief,stay,move,,2.15
subj_01,Eowyn,F,mix_terrier,SM,MS,24/10/2017,12/04/2021,41,3,5,training_go,move,stay,,9.9
subj_01,Eowyn,F,mix_terrier,SM,MS,24/10/2017,12/04/2021,41,3,6,training_wait,stay,move,,3.27
subj_01,Eowyn,F,mix_terrier,SM,MS,24/10/2017,12/04/2021,41,4,1,false_belief,stay,move,,4.77
subj_01,Eowyn,F,mix_terrier,SM,MS,24/10/2017,12/04/2021,41,4,2,training_go,move,stay,,9.8
subj_01,Eowyn,F,mix_terrier,SM,MS,24/10/2017,12/04/2021,41,4,3,training_wait,stay,stay,,9.78
subj_01,Eowyn,F,mix_terrier,SM,MS,24/10/2017,12/04/2021,41,4,4,true_belief,move,move,,4.83
subj_01,Eowyn,F,mix_terrier,SM,MS,24/10/2017,12/04/2021,41,4,5,training_wait,stay,stay,,10.13
subj_01,Eowyn,F,mix_terrier,SM,MS,24/10/2017,12/04/2021,41,4,6,training_go,move,stay,,9.73
subj_01,Eowyn,F,mix_terrier,SM,MS,24/10/2017,12/04/2021,41,5,1,ignorant,,move,,3.1
subj_01,Eowyn,F,mix_terrier,SM,MS,24/10/2017,12/04/2021,41,5,2,ignorant,,stay,,10.68
subj_01,Eowyn,F,mix_terrier,SM,MS,24/10/2017,12/04/2021,41,5,3,ignorant,,move,,2.52
subj_01,Eowyn,F,mix_terrier,SM,MS,24/10/2017,12/04/2021,41,5,4,ignorant,,move,,2.25
subj_02,Skadi2,F,spanish_greyhound,SM,LL,18/05/2011,19/04/2021,119,1,1,true_belief,move,move,,1.23
subj_02,Skadi2,F,spanish_greyhound,SM,LL,18/05/2011,19/04/2021,119,1,2,training_go,move,stay,,10.97
subj_02,Skadi2,F,spanish_greyhound,SM,LL,18/05/2011,19/04/2021,119,1,3,training_wait,stay,stay,,10.27
subj_02,Skadi2,F,spanish_greyhound,SM,LL,18/05/2011,19/04/2021,119,1,4,false_belief,stay,move,,1.28
subj_02,Skadi2,F,spanish_greyhound,SM,LL,18/05/2011,19/04/2021,119,1,5,training_wait,stay,stay,,10.68
subj_02,Skadi2,F,spanish_greyhound,SM,LL,18/05/2011,19/04/2021,119,1,6,training_go,move,stay,,10.8
subj_02,Skadi2,F,spanish_greyhound,SM,LL,18/05/2011,19/04/2021,119,2,1,false_belief,stay,move,,1.57
subj_02,Skadi2,F,spanish_greyhound,SM,LL,18/05/2011,19/04/2021,119,2,2,training_wait,stay,stay,,9.33
subj_02,Skadi2,F,spanish_greyhound,SM,LL,18/05/2011,19/04/2021,119,2,3,training_go,move,stay,,10.3
subj_02,Skadi2,F,spanish_greyhound,SM,LL,18/05/2011,19/04/2021,119,2,4,true_belief,move,stay,,10.65
subj_02,Skadi2,F,spanish_greyhound,SM,LL,18/05/2011,19/04/2021,119,2,5,training_go,move,stay,,10.62
subj_02,Skadi2,F,spanish_greyhound,SM,LL,18/05/2011,19/04/2021,119,2,6,training_wait,stay,stay,,10.03
subj_02,Skadi2,F,spanish_greyhound,SM,LL,18/05/2011,19/04/2021,119,3,1,false_belief,stay,stay,,11.82
subj_02,Skadi2,F,spanish_greyhound,SM,LL,18/05/2011,19/04/2021,119,3,2,training_go,move,stay,,10.7
subj_02,Skadi2,F,spanish_greyhound,SM,LL,18/05/2011,19/04/2021,119,3,3,training_wait,stay,stay,,9.7
subj_02,Skadi2,F,spanish_greyhound,SM,LL,18/05/2011,19/04/2021,119,3,4,true_belief,move,move,,1.33
subj_02,Skadi2,F,spanish_greyhound,SM,LL,18/05/2011,19/04/2021,119,3,5,training_wait,stay,stay,,11.18
subj_02,Skadi2,F,spanish_greyhound,SM,LL,18/05/2011,19/04/2021,119,3,6,training_go,move,stay,,12.82
subj_02,Skadi2,F,spanish_greyhound,SM,LL,18/05/2011,19/04/2021,119,4,1,true_belief,move,move,,1.05
subj_02,Skadi2,F,spanish_greyhound,SM,LL,18/05/2011,19/04/2021,119,4,2,training_wait,stay,stay,,10.75
subj_02,Skadi2,F,spanish_greyhound,SM,LL,18/05/2011,19/04/2021,119,4,3,training_go,move,stay,,10.9
subj_02,Skadi2,F,spanish_greyhound,SM,LL,18/05/2011,19/04/2021,119,4,4,false_belief,stay,move,,1.8
subj_02,Skadi2,F,spanish_greyhound,SM,LL,18/05/2011,19/04/2021,119,4,5,training_go,move,stay,,11.1
subj_02,Skadi2,F,spanish_greyhound,SM,LL,18/05/2011,19/04/2021,119,4,6,training_wait,stay,stay,,10.87
subj_02,Skadi2,F,spanish_greyhound,SM,LL,18/05/2011,19/04/2021,119,5,1,ignorant,,move,,1.75
subj_02,Skadi2,F,spanish_greyhound,SM,LL,18/05/2011,19/04/2021,119,5,2,ignorant,,move,,1.42
subj_02,Skadi2,F,spanish_greyhound,SM,LL,18/05/2011,19/04/2021,119,5,3,ignorant,,move,,0.95
subj_02,Skadi2,F,spanish_greyhound,SM,LL,18/05/2011,19/04/2021,119,5,4,ignorant,,move,,1.32
subj_03,Aquila,F,border_collie,SM,LL,22/05/2013,14/04/2021,94,1,1,false_belief,stay,stay,,10.12
subj_03,Aquila,F,border_collie,SM,LL,22/05/2013,14/04/2021,94,1,2,training_wait,stay,stay,,9.33
subj_03,Aquila,F,border_collie,SM,LL,22/05/2013,14/04/2021,94,1,3,training_go,move,move,,1.65
subj_03,Aquila,F,border_collie,SM,LL,22/05/2013,14/04/2021,94,1,4,true_belief,move,move,,1.18
subj_03,Aquila,F,border_collie,SM,LL,22/05/2013,14/04/2021,94,1,5,training_go,move,move,,1.25
subj_03,Aquila,F,border_collie,SM,LL,22/05/2013,14/04/2021,94,1,6,training_wait,stay,stay,,9.57
subj_03,Aquila,F,border_collie,SM,LL,22/05/2013,14/04/2021,94,2,1,true_belief,move,move,,1.48
subj_03,Aquila,F,border_collie,SM,LL,22/05/2013,14/04/2021,94,2,2,training_go,move,move,,1.18
subj_03,Aquila,F,border_collie,SM,LL,22/05/2013,14/04/2021,94,2,3,training_wait,stay,stay,,10.67
subj_03,Aquila,F,border_collie,SM,LL,22/05/2013,14/04/2021,94,2,4,false_belief,stay,stay,,9.38
subj_03,Aquila,F,border_collie,SM,LL,22/05/2013,14/04/2021,94,2,5,training_wait,stay,move,,2.82
subj_03,Aquila,F,border_collie,SM,LL,22/05/2013,14/04/2021,94,2,6,training_go,move,stay,,10.02
subj_03,Aquila,F,border_collie,SM,LL,22/05/2013,14/04/2021,94,3,1,false_belief,stay,stay,,9.92
subj_03,Aquila,F,border_collie,SM,LL,22/05/2013,14/04/2021,94,3,2,training_wait,stay,stay,,9.97
subj_03,Aquila,F,border_collie,SM,LL,22/05/2013,14/04/2021,94,3,3,training_go,move,move,,2.02
subj_03,Aquila,F,border_collie,SM,LL,22/05/2013,14/04/2021,94,3,4,true_belief,move,move,,3.03
subj_03,Aquila,F,border_collie,SM,LL,22/05/2013,14/04/2021,94,3,5,training_go,move,stay,,10.23
subj_03,Aquila,F,border_collie,SM,LL,22/05/2013,14/04/2021,94,3,6,training_wait,stay,stay,,9.8
subj_03,Aquila,F,border_collie,SM,LL,22/05/2013,14/04/2021,94,4,1,true_belief,move,stay,,10.17
subj_03,Aquila,F,border_collie,SM,LL,22/05/2013,14/04/2021,94,4,2,training_go,move,move,,1.67
subj_03,Aquila,F,border_collie,SM,LL,22/05/2013,14/04/2021,94,4,3,training_wait,stay,move,,2.52
subj_03,Aquila,F,border_collie,SM,LL,22/05/2013,14/04/2021,94,4,4,false_belief,stay,stay,,10.15
subj_03,Aquila,F,border_collie,SM,LL,22/05/2013,14/04/2021,94,4,5,training_wait,stay,stay,,9.93
subj_03,Aquila,F,border_collie,SM,LL,22/05/2013,14/04/2021,94,4,6,training_go,move,stay,,10.65
subj_03,Aquila,F,border_collie,SM,LL,22/05/2013,14/04/2021,94,5,1,ignorant,,move,,1.63
subj_03,Aquila,F,border_collie,SM,LL,22/05/2013,14/04/2021,94,5,2,ignorant,,move,,1.67
subj_03,Aquila,F,border_collie,SM,LL,22/05/2013,14/04/2021,94,5,3,ignorant,,move,,1.45
subj_03,Aquila,F,border_collie,SM,LL,22/05/2013,14/04/2021,94,5,4,ignorant,,move,,1.23
subj_04,Jimi,M,mix_bull_terrier,SM,LL,,23/04/2021,,1,1,true_belief,move,move,,0.88
subj_04,Jimi,M,mix_bull_terrier,SM,LL,,23/04/2021,,1,2,training_go,move,move,,1.28
subj_04,Jimi,M,mix_bull_terrier,SM,LL,,23/04/2021,,1,3,training_wait,stay,stay,,9.93
subj_04,Jimi,M,mix_bull_terrier,SM,LL,,23/04/2021,,1,4,false_belief,stay,move,,1.05
subj_04,Jimi,M,mix_bull_terrier,SM,LL,,23/04/2021,,1,5,training_wait,stay,stay,,9.5
subj_04,Jimi,M,mix_bull_terrier,SM,LL,,23/04/2021,,1,6,training_go,move,move,,1.35
subj_04,Jimi,M,mix_bull_terrier,SM,LL,,23/04/2021,,2,1,false_belief,stay,move,,1.02
subj_04,Jimi,M,mix_bull_terrier,SM,LL,,23/04/2021,,2,2,training_wait,stay,move,,3.02
subj_04,Jimi,M,mix_bull_terrier,SM,LL,,23/04/2021,,2,3,training_go,move,stay,,10.72
subj_04,Jimi,M,mix_bull_terrier,SM,LL,,23/04/2021,,2,4,true_belief,move,move,,1.75
subj_04,Jimi,M,mix_bull_terrier,SM,LL,,23/04/2021,,2,5,training_go,move,move,,1.47
subj_04,Jimi,M,mix_bull_terrier,SM,LL,,23/04/2021,,2,6,training_wait,stay,stay,,10.18
subj_04,Jimi,M,mix_bull_terrier,SM,LL,,23/04/2021,,3,1,true_belief,move,move,,1.18
subj_04,Jimi,M,mix_bull_terrier,SM,LL,,23/04/2021,,3,2,training_go,move,move,,1.35
subj_04,Jimi,M,mix_bull_terrier,SM,LL,,23/04/2021,,3,3,training_wait,stay,stay,,10.35
subj_04,Jimi,M,mix_bull_terrier,SM,LL,,23/04/2021,,3,4,false_belief,stay,move,,1.98
subj_04,Jimi,M,mix_bull_terrier,SM,LL,,23/04/2021,,3,5,training_wait,stay,stay,,10.63
subj_04,Jimi,M,mix_bull_terrier,SM,LL,,23/04/2021,,3,6,training_go,move,stay,,10.35
subj_04,Jimi,M,mix_bull_terrier,SM,LL,,23/04/2021,,4,1,false_belief,stay,stay,,10.78
subj_04,Jimi,M,mix_bull_terrier,SM,LL,,23/04/2021,,4,2,training_wait,stay,stay,,10.17
subj_04,Jimi,M,mix_bull_terrier,SM,LL,,23/04/2021,,4,3,training_go,move,stay,,10.72
subj_04,Jimi,M,mix_bull_terrier,SM,LL,,23/04/2021,,4,4,true_belief,move,stay,,10.65
subj_04,Jimi,M,mix_bull_terrier,SM,LL,,23/04/2021,,4,5,training_go,move,stay,,11.18
subj_04,Jimi,M,mix_bull_terrier,SM,LL,,23/04/2021,,4,6,training_wait,stay,stay,,10.4
subj_04,Jimi,M,mix_bull_terrier,SM,LL,,23/04/2021,,5,1,ignorant,,move,,0.85
subj_04,Jimi,M,mix_bull_terrier,SM,LL,,23/04/2021,,5,2,ignorant,,move,,1.07
subj_04,Jimi,M,mix_bull_terrier,SM,LL,,23/04/2021,,5,3,ignorant,,move,,1
subj_04,Jimi,M,mix_bull_terrier,SM,LL,,23/04/2021,,5,4,ignorant,,move,,1.02
subj_05,Meli,F,mix_deutsch_shepherd,SM,LL,18/04/2016,26/04/2021,60,1,1,false_belief,stay,move,,1.35
subj_05,Meli,F,mix_deutsch_shepherd,SM,LL,18/04/2016,26/04/2021,60,1,2,training_go,move,stay,,10.35
subj_05,Meli,F,mix_deutsch_shepherd,SM,LL,18/04/2016,26/04/2021,60,1,3,training_wait,stay,stay,,10.92
subj_05,Meli,F,mix_deutsch_shepherd,SM,LL,18/04/2016,26/04/2021,60,1,4,true_belief,move,move,,1.43
subj_05,Meli,F,mix_deutsch_shepherd,SM,LL,18/04/2016,26/04/2021,60,1,5,training_wait,stay,stay,,10.27
subj_05,Meli,F,mix_deutsch_shepherd,SM,LL,18/04/2016,26/04/2021,60,1,6,training_go,move,stay,,10.63
subj_05,Meli,F,mix_deutsch_shepherd,SM,LL,18/04/2016,26/04/2021,60,2,1,true_belief,move,move,,1.63
subj_05,Meli,F,mix_deutsch_shepherd,SM,LL,18/04/2016,26/04/2021,60,2,2,training_wait,stay,stay,,10.35
subj_05,Meli,F,mix_deutsch_shepherd,SM,LL,18/04/2016,26/04/2021,60,2,3,training_go,move,stay,,10.62
subj_05,Meli,F,mix_deutsch_shepherd,SM,LL,18/04/2016,26/04/2021,60,2,4,false_belief,stay,stay,,10.17
subj_05,Meli,F,mix_deutsch_shepherd,SM,LL,18/04/2016,26/04/2021,60,2,5,training_go,move,stay,,11.17
subj_05,Meli,F,mix_deutsch_shepherd,SM,LL,18/04/2016,26/04/2021,60,2,6,training_wait,stay,stay,,10.38
subj_05,Meli,F,mix_deutsch_shepherd,SM,LL,18/04/2016,26/04/2021,60,3,1,true_belief,move,move,,1.83
subj_05,Meli,F,mix_deutsch_shepherd,SM,LL,18/04/2016,26/04/2021,60,3,2,training_go,move,stay,,10.33
subj_05,Meli,F,mix_deutsch_shepherd,SM,LL,18/04/2016,26/04/2021,60,3,3,training_wait,stay,stay,,10.87
subj_05,Meli,F,mix_deutsch_shepherd,SM,LL,18/04/2016,26/04/2021,60,3,4,false_belief,stay,stay,,10.85
subj_05,Meli,F,mix_deutsch_shepherd,SM,LL,18/04/2016,26/04/2021,60,3,5,training_wait,stay,stay,,10.53
subj_05,Meli,F,mix_deutsch_shepherd,SM,LL,18/04/2016,26/04/2021,60,3,6,training_go,move,stay,,11.28
subj_05,Meli,F,mix_deutsch_shepherd,SM,LL,18/04/2016,26/04/2021,60,4,1,false_belief,stay,move,,1.4
subj_05,Meli,F,mix_deutsch_shepherd,SM,LL,18/04/2016,26/04/2021,60,4,2,training_wait,stay,stay,,10.95
subj_05,Meli,F,mix_deutsch_shepherd,SM,LL,18/04/2016,26/04/2021,60,4,3,training_go,move,stay,,11.07
subj_05,Meli,F,mix_deutsch_shepherd,SM,LL,18/04/2016,26/04/2021,60,4,4,true_belief,move,stay,,9.07
subj_05,Meli,F,mix_deutsch_shepherd,SM,LL,18/04/2016,26/04/2021,60,4,5,training_go,move,move,,1.65
subj_05,Meli,F,mix_deutsch_shepherd,SM,LL,18/04/2016,26/04/2021,60,4,6,training_wait,stay,stay,,9.9
subj_05,Meli,F,mix_deutsch_shepherd,SM,LL,18/04/2016,26/04/2021,60,5,1,ignorant,,stay,,10.73
subj_05,Meli,F,mix_deutsch_shepherd,SM,LL,18/04/2016,26/04/2021,60,5,2,ignorant,,stay,,11.7
subj_05,Meli,F,mix_deutsch_shepherd,SM,LL,18/04/2016,26/04/2021,60,5,3,ignorant,,stay,,11.22
subj_05,Meli,F,mix_deutsch_shepherd,SM,LL,18/04/2016,26/04/2021,60,5,4,ignorant,,stay,,11.03
subj_06,Loki4,M,mix_cirneco_dell_etna_portuguese_warren_hound_portuguese_podengo,SM,MS,01/09/2014,05/05/2021,80,1,1,true_belief,move,move,,0.73
subj_06,Loki4,M,mix_cirneco_dell_etna_portuguese_warren_hound_portuguese_podengo,SM,MS,01/09/2014,05/05/2021,80,1,2,training_wait,stay,move,,1.72
subj_06,Loki4,M,mix_cirneco_dell_etna_portuguese_warren_hound_portuguese_podengo,SM,MS,01/09/2014,05/05/2021,80,1,3,training_go,move,move,,1.33
subj_06,Loki4,M,mix_cirneco_dell_etna_portuguese_warren_hound_portuguese_podengo,SM,MS,01/09/2014,05/05/2021,80,1,4,false_belief,stay,move,,1.1
subj_06,Loki4,M,mix_cirneco_dell_etna_portuguese_warren_hound_portuguese_podengo,SM,MS,01/09/2014,05/05/2021,80,1,5,training_go,move,move,,1.88
subj_06,Loki4,M,mix_cirneco_dell_etna_portuguese_warren_hound_portuguese_podengo,SM,MS,01/09/2014,05/05/2021,80,1,6,training_wait,stay,stay,,10.28
subj_06,Loki4,M,mix_cirneco_dell_etna_portuguese_warren_hound_portuguese_podengo,SM,MS,01/09/2014,05/05/2021,80,2,1,false_belief,stay,move,,1.07
subj_06,Loki4,M,mix_cirneco_dell_etna_portuguese_warren_hound_portuguese_podengo,SM,MS,01/09/2014,05/05/2021,80,2,2,training_go,move,move,,1.22
subj_06,Loki4,M,mix_cirneco_dell_etna_portuguese_warren_hound_portuguese_podengo,SM,MS,01/09/2014,05/05/2021,80,2,3,training_wait,stay,stay,,10.5
subj_06,Loki4,M,mix_cirneco_dell_etna_portuguese_warren_hound_portuguese_podengo,SM,MS,01/09/2014,05/05/2021,80,2,4,true_belief,move,move,,1.12
subj_06,Loki4,M,mix_cirneco_dell_etna_portuguese_warren_hound_portuguese_podengo,SM,MS,01/09/2014,05/05/2021,80,2,5,training_wait,stay,stay,,11.7
subj_06,Loki4,M,mix_cirneco_dell_etna_portuguese_warren_hound_portuguese_podengo,SM,MS,01/09/2014,05/05/2021,80,2,6,training_go,move,move,,1.35
subj_06,Loki4,M,mix_cirneco_dell_etna_portuguese_warren_hound_portuguese_podengo,SM,MS,01/09/2014,05/05/2021,80,3,1,false_belief,stay,move,,1.03
subj_06,Loki4,M,mix_cirneco_dell_etna_portuguese_warren_hound_portuguese_podengo,SM,MS,01/09/2014,05/05/2021,80,3,2,training_wait,stay,stay,,10.78
subj_06,Loki4,M,mix_cirneco_dell_etna_portuguese_warren_hound_portuguese_podengo,SM,MS,01/09/2014,05/05/2021,80,3,3,training_go,move,move,,1.42
subj_06,Loki4,M,mix_cirneco_dell_etna_portuguese_warren_hound_portuguese_podengo,SM,MS,01/09/2014,05/05/2021,80,3,4,true_belief,move,move,,1.3
subj_06,Loki4,M,mix_cirneco_dell_etna_portuguese_warren_hound_portuguese_podengo,SM,MS,01/09/2014,05/05/2021,80,3,5,training_go,move,move,,1.37
subj_06,Loki4,M,mix_cirneco_dell_etna_portuguese_warren_hound_portuguese_podengo,SM,MS,01/09/2014,05/05/2021,80,3,6,training_wait,stay,stay,,10.08
subj_06,Loki4,M,mix_cirneco_dell_etna_portuguese_warren_hound_portuguese_podengo,SM,MS,01/09/2014,05/05/2021,80,4,1,true_belief,move,move,,1.03
subj_06,Loki4,M,mix_cirneco_dell_etna_portuguese_warren_hound_portuguese_podengo,SM,MS,01/09/2014,05/05/2021,80,4,2,training_go,move,move,,1.73
subj_06,Loki4,M,mix_cirneco_dell_etna_portuguese_warren_hound_portuguese_podengo,SM,MS,01/09/2014,05/05/2021,80,4,3,training_wait,stay,stay,,11.02
subj_06,Loki4,M,mix_cirneco_dell_etna_portuguese_warren_hound_portuguese_podengo,SM,MS,01/09/2014,05/05/2021,80,4,4,false_belief,stay,move,,1.33
subj_06,Loki4,M,mix_cirneco_dell_etna_portuguese_warren_hound_portuguese_podengo,SM,MS,01/09/2014,05/05/2021,80,4,5,training_wait,stay,move,,1.4
subj_06,Loki4,M,mix_cirneco_dell_etna_portuguese_warren_hound_portuguese_podengo,SM,MS,01/09/2014,05/05/2021,80,4,6,training_go,move,move,,1.17
subj_06,Loki4,M,mix_cirneco_dell_etna_portuguese_warren_hound_portuguese_podengo,SM,MS,01/09/2014,05/05/2021,80,5,1,ignorant,,move,,1.05
subj_06,Loki4,M,mix_cirneco_dell_etna_portuguese_warren_hound_portuguese_podengo,SM,MS,01/09/2014,05/05/2021,80,5,2,ignorant,,move,,1.17
subj_06,Loki4,M,mix_cirneco_dell_etna_portuguese_warren_hound_portuguese_podengo,SM,MS,01/09/2014,05/05/2021,80,5,3,ignorant,,move,,1.27
subj_06,Loki4,M,mix_cirneco_dell_etna_portuguese_warren_hound_portuguese_podengo,SM,MS,01/09/2014,05/05/2021,80,5,4,ignorant,,move,,1.35
subj_07,Bailey5,M,mix,SM,MS,22/04/2020,28/04/2021,12,1,1,false_belief,stay,move,,6.8
subj_07,Bailey5,M,mix,SM,MS,22/04/2020,28/04/2021,12,1,2,training_go,move,stay,,11.9
subj_07,Bailey5,M,mix,SM,MS,22/04/2020,28/04/2021,12,1,3,training_wait,stay,stay,,10.9
subj_07,Bailey5,M,mix,SM,MS,22/04/2020,28/04/2021,12,1,4,true_belief,move,stay,,10.7
subj_07,Bailey5,M,mix,SM,MS,22/04/2020,28/04/2021,12,1,5,training_wait,stay,stay,,10.6
subj_07,Bailey5,M,mix,SM,MS,22/04/2020,28/04/2021,12,1,6,training_go,move,stay,,10.6
subj_07,Bailey5,M,mix,SM,MS,22/04/2020,28/04/2021,12,2,1,true_belief,move,stay,,10.7
subj_07,Bailey5,M,mix,SM,MS,22/04/2020,28/04/2021,12,2,2,training_wait,stay,stay,,9.9
subj_07,Bailey5,M,mix,SM,MS,22/04/2020,28/04/2021,12,2,3,training_go,move,stay,,10.5
subj_07,Bailey5,M,mix,SM,MS,22/04/2020,28/04/2021,12,2,4,false_belief,stay,move,,1.6
subj_07,Bailey5,M,mix,SM,MS,22/04/2020,28/04/2021,12,2,5,training_go,move,move,,2.5
subj_07,Bailey5,M,mix,SM,MS,22/04/2020,28/04/2021,12,2,6,training_wait,stay,stay,,10.1
subj_07,Bailey5,M,mix,SM,MS,22/04/2020,28/04/2021,12,3,1,false_belief,stay,stay,,10.1
subj_07,Bailey5,M,mix,SM,MS,22/04/2020,28/04/2021,12,3,2,training_go,move,move,,2.6
subj_07,Bailey5,M,mix,SM,MS,22/04/2020,28/04/2021,12,3,3,training_wait,stay,stay,,10.7
subj_07,Bailey5,M,mix,SM,MS,22/04/2020,28/04/2021,12,3,4,true_belief,move,stay,,10.4
subj_07,Bailey5,M,mix,SM,MS,22/04/2020,28/04/2021,12,3,5,training_wait,stay,stay,,10
subj_07,Bailey5,M,mix,SM,MS,22/04/2020,28/04/2021,12,3,6,training_go,move,move,,2.1
subj_07,Bailey5,M,mix,SM,MS,22/04/2020,28/04/2021,12,4,1,true_belief,move,move,,2.7
subj_07,Bailey5,M,mix,SM,MS,22/04/2020,28/04/2021,12,4,2,training_wait,stay,stay,,9.7
subj_07,Bailey5,M,mix,SM,MS,22/04/2020,28/04/2021,12,4,3,training_go,move,move,,2
subj_07,Bailey5,M,mix,SM,MS,22/04/2020,28/04/2021,12,4,4,false_belief,stay,move,,1.5
subj_07,Bailey5,M,mix,SM,MS,22/04/2020,28/04/2021,12,4,5,training_go,move,move,,1.8
subj_07,Bailey5,M,mix,SM,MS,22/04/2020,28/04/2021,12,4,6,training_wait,stay,stay,,9.7
subj_07,Bailey5,M,mix,SM,MS,22/04/2020,28/04/2021,12,5,1,ignorant,,stay,,10.4
subj_07,Bailey5,M,mix,SM,MS,22/04/2020,28/04/2021,12,5,2,ignorant,,stay,,11.5
subj_07,Bailey5,M,mix,SM,MS,22/04/2020,28/04/2021,12,5,3,ignorant,,move,,3.3
subj_07,Bailey5,M,mix,SM,MS,22/04/2020,28/04/2021,12,5,4,ignorant,,move,,1.8
subj_08,Joseph,M,mix_puli,SM,MS,10/02/2018,27/04/2021,38,1,1,true_belief,move,move,,0.78
subj_08,Joseph,M,mix_puli,SM,MS,10/02/2018,27/04/2021,38,1,2,training_wait,stay,move,,1.28
subj_08,Joseph,M,mix_puli,SM,MS,10/02/2018,27/04/2021,38,1,3,training_go,move,move,,2.3
subj_08,Joseph,M,mix_puli,SM,MS,10/02/2018,27/04/2021,38,1,4,false_belief,stay,move,,1.25
subj_08,Joseph,M,mix_puli,SM,MS,10/02/2018,27/04/2021,38,1,5,training_go,move,move,,1.47
subj_08,Joseph,M,mix_puli,SM,MS,10/02/2018,27/04/2021,38,1,6,training_wait,stay,stay,,10.27
subj_08,Joseph,M,mix_puli,SM,MS,10/02/2018,27/04/2021,38,2,1,false_belief,stay,move,,1.43
subj_08,Joseph,M,mix_puli,SM,MS,10/02/2018,27/04/2021,38,2,2,training_go,move,stay,,10.82
subj_08,Joseph,M,mix_puli,SM,MS,10/02/2018,27/04/2021,38,2,3,training_wait,stay,stay,,10.65
subj_08,Joseph,M,mix_puli,SM,MS,10/02/2018,27/04/2021,38,2,4,true_belief,move,move,,3.28
subj_08,Joseph,M,mix_puli,SM,MS,10/02/2018,27/04/2021,38,2,5,training_wait,stay,move,,8.87
subj_08,Joseph,M,mix_puli,SM,MS,10/02/2018,27/04/2021,38,2,6,training_go,move,move,,2.9
subj_08,Joseph,M,mix_puli,SM,MS,10/02/2018,27/04/2021,38,3,1,true_belief,move,move,,1.37
subj_08,Joseph,M,mix_puli,SM,MS,10/02/2018,27/04/2021,38,3,2,training_wait,stay,stay,,10.7
subj_08,Joseph,M,mix_puli,SM,MS,10/02/2018,27/04/2021,38,3,3,training_go,move,move,,1.75
subj_08,Joseph,M,mix_puli,SM,MS,10/02/2018,27/04/2021,38,3,4,false_belief,stay,move,,1.35
subj_08,Joseph,M,mix_puli,SM,MS,10/02/2018,27/04/2021,38,3,5,training_go,move,move,,1.38
subj_08,Joseph,M,mix_puli,SM,MS,10/02/2018,27/04/2021,38,3,6,training_wait,stay,stay,,10.3
subj_08,Joseph,M,mix_puli,SM,MS,10/02/2018,27/04/2021,38,4,1,false_belief,stay,move,,1.18
subj_08,Joseph,M,mix_puli,SM,MS,10/02/2018,27/04/2021,38,4,2,training_go,move,move,,1.37
subj_08,Joseph,M,mix_puli,SM,MS,10/02/2018,27/04/2021,38,4,3,training_wait,stay,move,,3.8
subj_08,Joseph,M,mix_puli,SM,MS,10/02/2018,27/04/2021,38,4,4,true_belief,move,move,,4.48
subj_08,Joseph,M,mix_puli,SM,MS,10/02/2018,27/04/2021,38,4,5,training_wait,stay,stay,,10.42
subj_08,Joseph,M,mix_puli,SM,MS,10/02/2018,27/04/2021,38,4,6,training_go,move,move,,1.25
subj_08,Joseph,M,mix_puli,SM,MS,10/02/2018,27/04/2021,38,5,1,ignorant,,move,,1.42
subj_08,Joseph,M,mix_puli,SM,MS,10/02/2018,27/04/2021,38,5,2,ignorant,,move,,2.3
subj_08,Joseph,M,mix_puli,SM,MS,10/02/2018,27/04/2021,38,5,3,ignorant,,move,,1.45
subj_08,Joseph,M,mix_puli,SM,MS,10/02/2018,27/04/2021,38,5,4,ignorant,,stay,,10.33
subj_09,Josephine,F,mix_puli,SM,MS,22/03/2017,27/04/2021,49,1,1,false_belief,stay,move,,1
subj_09,Josephine,F,mix_puli,SM,MS,22/03/2017,27/04/2021,49,1,2,training_wait,stay,move,,1.2
subj_09,Josephine,F,mix_puli,SM,MS,22/03/2017,27/04/2021,49,1,3,training_go,move,move,,1.05
subj_09,Josephine,F,mix_puli,SM,MS,22/03/2017,27/04/2021,49,1,4,true_belief,move,move,,1.4
subj_09,Josephine,F,mix_puli,SM,MS,22/03/2017,27/04/2021,49,1,5,training_go,move,move,,1.27
subj_09,Josephine,F,mix_puli,SM,MS,22/03/2017,27/04/2021,49,1,6,training_wait,stay,stay,,10.28
subj_09,Josephine,F,mix_puli,SM,MS,22/03/2017,27/04/2021,49,2,1,true_belief,move,move,,1.08
subj_09,Josephine,F,mix_puli,SM,MS,22/03/2017,27/04/2021,49,2,2,training_go,move,move,,1.17
subj_09,Josephine,F,mix_puli,SM,MS,22/03/2017,27/04/2021,49,2,3,training_wait,stay,stay,,10.88
subj_09,Josephine,F,mix_puli,SM,MS,22/03/2017,27/04/2021,49,2,4,false_belief,stay,move,,1.15
subj_09,Josephine,F,mix_puli,SM,MS,22/03/2017,27/04/2021,49,2,5,training_wait,stay,move,,1.63
subj_09,Josephine,F,mix_puli,SM,MS,22/03/2017,27/04/2021,49,2,6,training_go,move,move,,1.45
subj_09,Josephine,F,mix_puli,SM,MS,22/03/2017,27/04/2021,49,3,1,true_belief,move,move,,1.97
subj_09,Josephine,F,mix_puli,SM,MS,22/03/2017,27/04/2021,49,3,2,training_wait,stay,stay,,10.43
subj_09,Josephine,F,mix_puli,SM,MS,22/03/2017,27/04/2021,49,3,3,training_go,move,move,,1.67
subj_09,Josephine,F,mix_puli,SM,MS,22/03/2017,27/04/2021,49,3,4,false_belief,stay,move,,1.62
subj_09,Josephine,F,mix_puli,SM,MS,22/03/2017,27/04/2021,49,3,5,training_go,move,move,,1.2
subj_09,Josephine,F,mix_puli,SM,MS,22/03/2017,27/04/2021,49,3,6,training_wait,stay,stay,,10.53
subj_09,Josephine,F,mix_puli,SM,MS,22/03/2017,27/04/2021,49,4,1,false_belief,stay,move,,1.18
subj_09,Josephine,F,mix_puli,SM,MS,22/03/2017,27/04/2021,49,4,2,training_go,move,move,,1.15
subj_09,Josephine,F,mix_puli,SM,MS,22/03/2017,27/04/2021,49,4,3,training_wait,stay,stay,,10.12
subj_09,Josephine,F,mix_puli,SM,MS,22/03/2017,27/04/2021,49,4,4,true_belief,move,move,,2.48
subj_09,Josephine,F,mix_puli,SM,MS,22/03/2017,27/04/2021,49,4,5,training_wait,stay,stay,,10.43
subj_09,Josephine,F,mix_puli,SM,MS,22/03/2017,27/04/2021,49,4,6,training_go,move,move,,1.27
subj_09,Josephine,F,mix_puli,SM,MS,22/03/2017,27/04/2021,49,5,1,ignorant,,move,,1.4
subj_09,Josephine,F,mix_puli,SM,MS,22/03/2017,27/04/2021,49,5,2,ignorant,,move,,1.28
subj_09,Josephine,F,mix_puli,SM,MS,22/03/2017,27/04/2021,49,5,3,ignorant,,move,,1.38
subj_09,Josephine,F,mix_puli,SM,MS,22/03/2017,27/04/2021,49,5,4,ignorant,,move,,2.33
subj_10,Sète,F,mix,SM,MS,02/09/2013,28/04/2021,91,1,1,true_belief,move,move,,1.23
subj_10,Sète,F,mix,SM,MS,02/09/2013,28/04/2021,91,1,2,training_go,move,move,,1.25
subj_10,Sète,F,mix,SM,MS,02/09/2013,28/04/2021,91,1,3,training_wait,stay,move,,1.53
subj_10,Sète,F,mix,SM,MS,02/09/2013,28/04/2021,91,1,4,false_belief,stay,move,,1.52
subj_10,Sète,F,mix,SM,MS,02/09/2013,28/04/2021,91,1,5,training_wait,stay,stay,,10.5
subj_10,Sète,F,mix,SM,MS,02/09/2013,28/04/2021,91,1,6,training_go,move,stay,,10.48
subj_10,Sète,F,mix,SM,MS,02/09/2013,28/04/2021,91,2,1,false_belief,stay,move,,2.12
subj_10,Sète,F,mix,SM,MS,02/09/2013,28/04/2021,91,2,2,training_wait,stay,stay,,10.53
subj_10,Sète,F,mix,SM,MS,02/09/2013,28/04/2021,91,2,3,training_go,move,move,,1.3
subj_10,Sète,F,mix,SM,MS,02/09/2013,28/04/2021,91,2,4,true_belief,move,stay,,11.43
subj_10,Sète,F,mix,SM,MS,02/09/2013,28/04/2021,91,2,5,training_go,move,stay,,10.58
subj_10,Sète,F,mix,SM,MS,02/09/2013,28/04/2021,91,2,6,training_wait,stay,move,,2.3
subj_10,Sète,F,mix,SM,MS,02/09/2013,28/04/2021,91,3,1,false_belief,stay,stay,,10.15
subj_10,Sète,F,mix,SM,MS,02/09/2013,28/04/2021,91,3,2,training_go,move,stay,,10.42
subj_10,Sète,F,mix,SM,MS,02/09/2013,28/04/2021,91,3,3,training_wait,stay,stay,,9.95
subj_10,Sète,F,mix,SM,MS,02/09/2013,28/04/2021,91,3,4,true_belief,move,move,,2.15
subj_10,Sète,F,mix,SM,MS,02/09/2013,28/04/2021,91,3,5,training_wait,stay,stay,,10.68
subj_10,Sète,F,mix,SM,MS,02/09/2013,28/04/2021,91,3,6,training_go,move,stay,,10.93
subj_10,Sète,F,mix,SM,MS,02/09/2013,28/04/2021,91,4,1,true_belief,move,move,,2.35
subj_10,Sète,F,mix,SM,MS,02/09/2013,28/04/2021,91,4,2,training_wait,stay,stay,,11
subj_10,Sète,F,mix,SM,MS,02/09/2013,28/04/2021,91,4,3,training_go,move,move,,2
subj_10,Sète,F,mix,SM,MS,02/09/2013,28/04/2021,91,4,4,false_belief,stay,move,,1.47
subj_10,Sète,F,mix,SM,MS,02/09/2013,28/04/2021,91,4,5,training_go,move,stay,,10.42
subj_10,Sète,F,mix,SM,MS,02/09/2013,28/04/2021,91,4,6,training_wait,stay,move,,2.07
subj_10,Sète,F,mix,SM,MS,02/09/2013,28/04/2021,91,5,1,ignorant,,move,,1.88
subj_10,Sète,F,mix,SM,MS,02/09/2013,28/04/2021,91,5,2,ignorant,,stay,,10.25
subj_10,Sète,F,mix,SM,MS,02/09/2013,28/04/2021,91,5,3,ignorant,,stay,,12.42
subj_10,Sète,F,mix,SM,MS,02/09/2013,28/04/2021,91,5,4,ignorant,,move,,1.87
subj_11,Mojo,F,australian_shepherd,SM,LL,25/09/2012,28/04/2021,103,1,1,false_belief,stay,stay,,10.92
subj_11,Mojo,F,australian_shepherd,SM,LL,25/09/2012,28/04/2021,103,1,2,training_wait,stay,stay,,9.95
subj_11,Mojo,F,australian_shepherd,SM,LL,25/09/2012,28/04/2021,103,1,3,training_go,move,stay,,10.63
subj_11,Mojo,F,australian_shepherd,SM,LL,25/09/2012,28/04/2021,103,1,4,true_belief,move,stay,,10.98
subj_11,Mojo,F,australian_shepherd,SM,LL,25/09/2012,28/04/2021,103,1,5,training_go,move,move,,2.98
subj_11,Mojo,F,australian_shepherd,SM,LL,25/09/2012,28/04/2021,103,1,6,training_wait,stay,stay,,10.12
subj_11,Mojo,F,australian_shepherd,SM,LL,25/09/2012,28/04/2021,103,2,1,true_belief,move,stay,,11.12
subj_11,Mojo,F,australian_shepherd,SM,LL,25/09/2012,28/04/2021,103,2,2,training_go,move,move,,2.13
subj_11,Mojo,F,australian_shepherd,SM,LL,25/09/2012,28/04/2021,103,2,3,training_wait,stay,stay,,10.77
subj_11,Mojo,F,australian_shepherd,SM,LL,25/09/2012,28/04/2021,103,2,4,false_belief,stay,move,,2.73
subj_11,Mojo,F,australian_shepherd,SM,LL,25/09/2012,28/04/2021,103,2,5,training_wait,stay,stay,,9.13
subj_11,Mojo,F,australian_shepherd,SM,LL,25/09/2012,28/04/2021,103,2,6,training_go,move,move,,3.97
subj_11,Mojo,F,australian_shepherd,SM,LL,25/09/2012,28/04/2021,103,3,1,false_belief,stay,stay,,10.45
subj_11,Mojo,F,australian_shepherd,SM,LL,25/09/2012,28/04/2021,103,3,2,training_wait,stay,stay,,11.17
subj_11,Mojo,F,australian_shepherd,SM,LL,25/09/2012,28/04/2021,103,3,3,training_go,move,move,,2.15
subj_11,Mojo,F,australian_shepherd,SM,LL,25/09/2012,28/04/2021,103,3,4,true_belief,move,move,,1.78
subj_11,Mojo,F,australian_shepherd,SM,LL,25/09/2012,28/04/2021,103,3,5,training_go,move,move,,1.63
subj_11,Mojo,F,australian_shepherd,SM,LL,25/09/2012,28/04/2021,103,3,6,training_wait,stay,stay,,10.72
subj_11,Mojo,F,australian_shepherd,SM,LL,25/09/2012,28/04/2021,103,4,1,true_belief,move,move,,1.4
subj_11,Mojo,F,australian_shepherd,SM,LL,25/09/2012,28/04/2021,103,4,2,training_go,move,move,,2.17
subj_11,Mojo,F,australian_shepherd,SM,LL,25/09/2012,28/04/2021,103,4,3,training_wait,stay,stay,,10.22
subj_11,Mojo,F,australian_shepherd,SM,LL,25/09/2012,28/04/2021,103,4,4,false_belief,stay,stay,,10.13
subj_11,Mojo,F,australian_shepherd,SM,LL,25/09/2012,28/04/2021,103,4,5,training_wait,stay,stay,,10.38
subj_11,Mojo,F,australian_shepherd,SM,LL,25/09/2012,28/04/2021,103,4,6,training_go,move,move,,2.02
subj_11,Mojo,F,australian_shepherd,SM,LL,25/09/2012,28/04/2021,103,5,1,ignorant,,move,,2.83
subj_11,Mojo,F,australian_shepherd,SM,LL,25/09/2012,28/04/2021,103,5,2,ignorant,,stay,,11.72
subj_11,Mojo,F,australian_shepherd,SM,LL,25/09/2012,28/04/2021,103,5,3,ignorant,,stay,,10.75
subj_11,Mojo,F,australian_shepherd,SM,LL,25/09/2012,28/04/2021,103,5,4,ignorant,,stay,,10.88
subj_12,Toulouse,M,mix,SM,MS,04/07/2019,28/04/2021,21,1,1,true_belief,move,move,,0.85
subj_12,Toulouse,M,mix,SM,MS,04/07/2019,28/04/2021,21,1,2,training_go,move,move,,1.15
subj_12,Toulouse,M,mix,SM,MS,04/07/2019,28/04/2021,21,1,3,training_wait,stay,move,,5.95
subj_12,Toulouse,M,mix,SM,MS,04/07/2019,28/04/2021,21,1,4,false_belief,stay,move,,0.87
subj_12,Toulouse,M,mix,SM,MS,04/07/2019,28/04/2021,21,1,5,training_wait,stay,move,,1.18
subj_12,Toulouse,M,mix,SM,MS,04/07/2019,28/04/2021,21,1,6,training_go,move,move,,1.68
subj_12,Toulouse,M,mix,SM,MS,04/07/2019,28/04/2021,21,2,1,false_belief,stay,move,,1.28
subj_12,Toulouse,M,mix,SM,MS,04/07/2019,28/04/2021,21,2,2,training_wait,stay,move,,1.3
subj_12,Toulouse,M,mix,SM,MS,04/07/2019,28/04/2021,21,2,3,training_go,move,move,,1.58
subj_12,Toulouse,M,mix,SM,MS,04/07/2019,28/04/2021,21,2,4,true_belief,move,move,,1.28
subj_12,Toulouse,M,mix,SM,MS,04/07/2019,28/04/2021,21,2,5,training_go,move,move,,1.58
subj_12,Toulouse,M,mix,SM,MS,04/07/2019,28/04/2021,21,2,6,training_wait,stay,stay,,9.92
subj_12,Toulouse,M,mix,SM,MS,04/07/2019,28/04/2021,21,3,1,true_belief,move,move,,0.8
subj_12,Toulouse,M,mix,SM,MS,04/07/2019,28/04/2021,21,3,2,training_go,move,move,,1.27
subj_12,Toulouse,M,mix,SM,MS,04/07/2019,28/04/2021,21,3,3,training_wait,stay,move,,3.9
subj_12,Toulouse,M,mix,SM,MS,04/07/2019,28/04/2021,21,3,4,false_belief,stay,move,,0.8
subj_12,Toulouse,M,mix,SM,MS,04/07/2019,28/04/2021,21,3,5,training_wait,stay,move,,1.25
subj_12,Toulouse,M,mix,SM,MS,04/07/2019,28/04/2021,21,3,6,training_go,move,move,,9.43
subj_12,Toulouse,M,mix,SM,MS,04/07/2019,28/04/2021,21,4,1,false_belief,stay,move,,1.35
subj_12,Toulouse,M,mix,SM,MS,04/07/2019,28/04/2021,21,4,2,training_wait,stay,stay,,8.93
subj_12,Toulouse,M,mix,SM,MS,04/07/2019,28/04/2021,21,4,3,training_go,move,move,,10.53
subj_12,Toulouse,M,mix,SM,MS,04/07/2019,28/04/2021,21,4,4,true_belief,move,move,,1.13
subj_12,Toulouse,M,mix,SM,MS,04/07/2019,28/04/2021,21,4,5,training_go,move,move,,1.27
subj_12,Toulouse,M,mix,SM,MS,04/07/2019,28/04/2021,21,4,6,training_wait,stay,move,,2.55
subj_12,Toulouse,M,mix,SM,MS,04/07/2019,28/04/2021,21,5,1,ignorant,,move,,1.27
subj_12,Toulouse,M,mix,SM,MS,04/07/2019,28/04/2021,21,5,2,ignorant,,move,,1
subj_12,Toulouse,M,mix,SM,MS,04/07/2019,28/04/2021,21,5,3,ignorant,,move,,0.95
subj_12,Toulouse,M,mix,SM,MS,04/07/2019,28/04/2021,21,5,4,ignorant,,move,,1.45
subj_13,Lucy13,L,miniature_schnauzer,SM,LL,29/10/2017,29/04/2021,42,1,1,false_belief,stay,move,,1.33
subj_13,Lucy13,L,miniature_schnauzer,SM,LL,29/10/2017,29/04/2021,42,1,2,training_go,move,move,,1.72
subj_13,Lucy13,L,miniature_schnauzer,SM,LL,29/10/2017,29/04/2021,42,1,3,training_wait,stay,stay,,9.83
subj_13,Lucy13,L,miniature_schnauzer,SM,LL,29/10/2017,29/04/2021,42,1,4,true_belief,move,move,,1.05
subj_13,Lucy13,L,miniature_schnauzer,SM,LL,29/10/2017,29/04/2021,42,1,5,training_wait,stay,stay,,10.73
subj_13,Lucy13,L,miniature_schnauzer,SM,LL,29/10/2017,29/04/2021,42,1,6,training_go,move,move,,1.53
subj_13,Lucy13,L,miniature_schnauzer,SM,LL,29/10/2017,29/04/2021,42,2,1,true_belief,move,move,,1.53
subj_13,Lucy13,L,miniature_schnauzer,SM,LL,29/10/2017,29/04/2021,42,2,2,training_wait,stay,stay,,10.42
subj_13,Lucy13,L,miniature_schnauzer,SM,LL,29/10/2017,29/04/2021,42,2,3,training_go,move,move,,1.32
subj_13,Lucy13,L,miniature_schnauzer,SM,LL,29/10/2017,29/04/2021,42,2,4,false_belief,stay,move,,1.53
subj_13,Lucy13,L,miniature_schnauzer,SM,LL,29/10/2017,29/04/2021,42,2,5,training_go,move,move,,0.97
subj_13,Lucy13,L,miniature_schnauzer,SM,LL,29/10/2017,29/04/2021,42,2,6,training_wait,stay,stay,,10.33
subj_13,Lucy13,L,miniature_schnauzer,SM,LL,29/10/2017,29/04/2021,42,3,1,true_belief,move,move,,1.1
subj_13,Lucy13,L,miniature_schnauzer,SM,LL,29/10/2017,29/04/2021,42,3,2,training_go,move,move,,1.27
subj_13,Lucy13,L,miniature_schnauzer,SM,LL,29/10/2017,29/04/2021,42,3,3,training_wait,stay,stay,,10.18
subj_13,Lucy13,L,miniature_schnauzer,SM,LL,29/10/2017,29/04/2021,42,3,4,false_belief,stay,move,,0.9
subj_13,Lucy13,L,miniature_schnauzer,SM,LL,29/10/2017,29/04/2021,42,3,5,training_wait,stay,move,,1.25
subj_13,Lucy13,L,miniature_schnauzer,SM,LL,29/10/2017,29/04/2021,42,3,6,training_go,move,move,,1.12
subj_13,Lucy13,L,miniature_schnauzer,SM,LL,29/10/2017,29/04/2021,42,4,1,false_belief,stay,stay,,10.17
subj_13,Lucy13,L,miniature_schnauzer,SM,LL,29/10/2017,29/04/2021,42,4,2,training_wait,stay,stay,,10.48
subj_13,Lucy13,L,miniature_schnauzer,SM,LL,29/10/2017,29/04/2021,42,4,3,training_go,move,move,,1.23
subj_13,Lucy13,L,miniature_schnauzer,SM,LL,29/10/2017,29/04/2021,42,4,4,true_belief,move,move,,0.82
subj_13,Lucy13,L,miniature_schnauzer,SM,LL,29/10/2017,29/04/2021,42,4,5,training_go,move,move,,1.18
subj_13,Lucy13,L,miniature_schnauzer,SM,LL,29/10/2017,29/04/2021,42,4,6,training_wait,stay,stay,,9.95
subj_13,Lucy13,L,miniature_schnauzer,SM,LL,29/10/2017,29/04/2021,42,5,1,ignorant,,move,,0.83
subj_13,Lucy13,L,miniature_schnauzer,SM,LL,29/10/2017,29/04/2021,42,5,2,ignorant,,move,,1.13
subj_13,Lucy13,L,miniature_schnauzer,SM,LL,29/10/2017,29/04/2021,42,5,3,ignorant,,move,,1.05
subj_13,Lucy13,L,miniature_schnauzer,SM,LL,29/10/2017,29/04/2021,42,5,4,ignorant,,move,,1.27
subj_14,Maylo,M,mix_shepherd_border_collie_setter,SM,LL,13/11/2015,30/04/2021,65,1,1,true_belief,move,move,,1.3
subj_14,Maylo,M,mix_shepherd_border_collie_setter,SM,LL,13/11/2015,30/04/2021,65,1,2,training_wait,stay,move,,2
subj_14,Maylo,M,mix_shepherd_border_collie_setter,SM,LL,13/11/2015,30/04/2021,65,1,3,training_go,move,stay,,10.13
subj_14,Maylo,M,mix_shepherd_border_collie_setter,SM,LL,13/11/2015,30/04/2021,65,1,4,false_belief,stay,stay,,10.45
subj_14,Maylo,M,mix_shepherd_border_collie_setter,SM,LL,13/11/2015,30/04/2021,65,1,5,training_go,move,stay,,10.4
subj_14,Maylo,M,mix_shepherd_border_collie_setter,SM,LL,13/11/2015,30/04/2021,65,1,6,training_wait,stay,stay,,10.1
subj_14,Maylo,M,mix_shepherd_border_collie_setter,SM,LL,13/11/2015,30/04/2021,65,2,1,false_belief,stay,move,,1.85
subj_14,Maylo,M,mix_shepherd_border_collie_setter,SM,LL,13/11/2015,30/04/2021,65,2,2,training_go,move,move,,2.17
subj_14,Maylo,M,mix_shepherd_border_collie_setter,SM,LL,13/11/2015,30/04/2021,65,2,3,training_wait,stay,stay,,10.07
subj_14,Maylo,M,mix_shepherd_border_collie_setter,SM,LL,13/11/2015,30/04/2021,65,2,4,true_belief,move,stay,,10.33
subj_14,Maylo,M,mix_shepherd_border_collie_setter,SM,LL,13/11/2015,30/04/2021,65,2,5,training_wait,stay,stay,,10.07
subj_14,Maylo,M,mix_shepherd_border_collie_setter,SM,LL,13/11/2015,30/04/2021,65,2,6,training_go,move,stay,,11.05
subj_14,Maylo,M,mix_shepherd_border_collie_setter,SM,LL,13/11/2015,30/04/2021,65,3,1,false_belief,stay,stay,,10.2
subj_14,Maylo,M,mix_shepherd_border_collie_setter,SM,LL,13/11/2015,30/04/2021,65,3,2,training_wait,stay,stay,,10.3
subj_14,Maylo,M,mix_shepherd_border_collie_setter,SM,LL,13/11/2015,30/04/2021,65,3,3,training_go,move,move,,2.1
subj_14,Maylo,M,mix_shepherd_border_collie_setter,SM,LL,13/11/2015,30/04/2021,65,3,4,true_belief,move,stay,,10.2
subj_14,Maylo,M,mix_shepherd_border_collie_setter,SM,LL,13/11/2015,30/04/2021,65,3,5,training_go,move,move,,2.28
subj_14,Maylo,M,mix_shepherd_border_collie_setter,SM,LL,13/11/2015,30/04/2021,65,3,6,training_wait,stay,stay,,10.33
subj_14,Maylo,M,mix_shepherd_border_collie_setter,SM,LL,13/11/2015,30/04/2021,65,4,1,true_belief,move,stay,,9.98
subj_14,Maylo,M,mix_shepherd_border_collie_setter,SM,LL,13/11/2015,30/04/2021,65,4,2,training_go,move,stay,,10.33
subj_14,Maylo,M,mix_shepherd_border_collie_setter,SM,LL,13/11/2015,30/04/2021,65,4,3,training_wait,stay,move,,2.55
subj_14,Maylo,M,mix_shepherd_border_collie_setter,SM,LL,13/11/2015,30/04/2021,65,4,4,false_belief,stay,stay,,9.93
subj_14,Maylo,M,mix_shepherd_border_collie_setter,SM,LL,13/11/2015,30/04/2021,65,4,5,training_wait,stay,stay,,10.02
subj_14,Maylo,M,mix_shepherd_border_collie_setter,SM,LL,13/11/2015,30/04/2021,65,4,6,training_go,move,stay,,10.68
subj_14,Maylo,M,mix_shepherd_border_collie_setter,SM,LL,13/11/2015,30/04/2021,65,5,1,ignorant,,stay,,11.65
subj_14,Maylo,M,mix_shepherd_border_collie_setter,SM,LL,13/11/2015,30/04/2021,65,5,2,ignorant,,move,,1.45
subj_14,Maylo,M,mix_shepherd_border_collie_setter,SM,LL,13/11/2015,30/04/2021,65,5,3,ignorant,,move,,3.62
subj_14,Maylo,M,mix_shepherd_border_collie_setter,SM,LL,13/11/2015,30/04/2021,65,5,4,ignorant,,move,,2.08
subj_15,Emil8,M,poodle_medium,SM,MS,28/10/2019,03/05/2021,18,1,1,false_belief,stay,stay,,10.07
subj_15,Emil8,M,poodle_medium,SM,MS,28/10/2019,03/05/2021,18,1,2,training_go,move,move,,1.52
subj_15,Emil8,M,poodle_medium,SM,MS,28/10/2019,03/05/2021,18,1,3,training_wait,stay,stay,,10.35
subj_15,Emil8,M,poodle_medium,SM,MS,28/10/2019,03/05/2021,18,1,4,true_belief,move,stay,,11.18
subj_15,Emil8,M,poodle_medium,SM,MS,28/10/2019,03/05/2021,18,1,5,training_wait,stay,stay,,11.03
subj_15,Emil8,M,poodle_medium,SM,MS,28/10/2019,03/05/2021,18,1,6,training_go,move,move,,9.62
subj_15,Emil8,M,poodle_medium,SM,MS,28/10/2019,03/05/2021,18,2,1,true_belief,move,stay,,10.78
subj_15,Emil8,M,poodle_medium,SM,MS,28/10/2019,03/05/2021,18,2,2,training_wait,stay,stay,,10.82
subj_15,Emil8,M,poodle_medium,SM,MS,28/10/2019,03/05/2021,18,2,3,training_go,move,move,,2.98
subj_15,Emil8,M,poodle_medium,SM,MS,28/10/2019,03/05/2021,18,2,4,false_belief,stay,move,,1.28
subj_15,Emil8,M,poodle_medium,SM,MS,28/10/2019,03/05/2021,18,2,5,training_go,move,move,,0.88
subj_15,Emil8,M,poodle_medium,SM,MS,28/10/2019,03/05/2021,18,2,6,training_wait,stay,stay,,10.8
subj_15,Emil8,M,poodle_medium,SM,MS,28/10/2019,03/05/2021,18,3,1,false_belief,stay,stay,,11.43
subj_15,Emil8,M,poodle_medium,SM,MS,28/10/2019,03/05/2021,18,3,2,training_go,move,move,,1.02
subj_15,Emil8,M,poodle_medium,SM,MS,28/10/2019,03/05/2021,18,3,3,training_wait,stay,stay,,10.82
subj_15,Emil8,M,poodle_medium,SM,MS,28/10/2019,03/05/2021,18,3,4,true_belief,move,stay,,11.13
subj_15,Emil8,M,poodle_medium,SM,MS,28/10/2019,03/05/2021,18,3,5,training_wait,stay,stay,,11.05
subj_15,Emil8,M,poodle_medium,SM,MS,28/10/2019,03/05/2021,18,3,6,training_go,move,stay,,10.78
subj_15,Emil8,M,poodle_medium,SM,MS,28/10/2019,03/05/2021,18,4,1,true_belief,move,move,,1.52
subj_15,Emil8,M,poodle_medium,SM,MS,28/10/2019,03/05/2021,18,4,2,training_wait,stay,stay,,10.88
subj_15,Emil8,M,poodle_medium,SM,MS,28/10/2019,03/05/2021,18,4,3,training_go,move,stay,,11.22
subj_15,Emil8,M,poodle_medium,SM,MS,28/10/2019,03/05/2021,18,4,4,false_belief,stay,move,,8.08
subj_15,Emil8,M,poodle_medium,SM,MS,28/10/2019,03/05/2021,18,4,5,training_go,move,move,,10.57
subj_15,Emil8,M,poodle_medium,SM,MS,28/10/2019,03/05/2021,18,4,6,training_wait,stay,stay,,10.45
subj_15,Emil8,M,poodle_medium,SM,MS,28/10/2019,03/05/2021,18,5,1,ignorant,,stay,,10.35
subj_15,Emil8,M,poodle_medium,SM,MS,28/10/2019,03/05/2021,18,5,2,ignorant,,move,,3.3
subj_15,Emil8,M,poodle_medium,SM,MS,28/10/2019,03/05/2021,18,5,3,ignorant,,stay,,10.58
subj_15,Emil8,M,poodle_medium,SM,MS,28/10/2019,03/05/2021,18,5,4,ignorant,,move,,1.55
subj_16,Herby,M,mix_rauhhaar_dackel_schnauzer_pointer,SM,LL,10/06/2020,10/05/2021,11,1,1,true_belief,move,move,,0.45
subj_16,Herby,M,mix_rauhhaar_dackel_schnauzer_pointer,SM,LL,10/06/2020,10/05/2021,11,1,2,training_wait,stay,move,,1.35
subj_16,Herby,M,mix_rauhhaar_dackel_schnauzer_pointer,SM,LL,10/06/2020,10/05/2021,11,1,3,training_go,move,move,,1.92
subj_16,Herby,M,mix_rauhhaar_dackel_schnauzer_pointer,SM,LL,10/06/2020,10/05/2021,11,1,4,false_belief,stay,move,,0.87
subj_16,Herby,M,mix_rauhhaar_dackel_schnauzer_pointer,SM,LL,10/06/2020,10/05/2021,11,1,5,training_go,move,stay,,11
subj_16,Herby,M,mix_rauhhaar_dackel_schnauzer_pointer,SM,LL,10/06/2020,10/05/2021,11,1,6,training_wait,stay,stay,,10.75
subj_16,Herby,M,mix_rauhhaar_dackel_schnauzer_pointer,SM,LL,10/06/2020,10/05/2021,11,2,1,false_belief,stay,move,,1.42
subj_16,Herby,M,mix_rauhhaar_dackel_schnauzer_pointer,SM,LL,10/06/2020,10/05/2021,11,2,2,training_go,move,stay,,10.78
subj_16,Herby,M,mix_rauhhaar_dackel_schnauzer_pointer,SM,LL,10/06/2020,10/05/2021,11,2,3,training_wait,stay,stay,,11.08
subj_16,Herby,M,mix_rauhhaar_dackel_schnauzer_pointer,SM,LL,10/06/2020,10/05/2021,11,2,4,true_belief,move,stay,,11.12
subj_16,Herby,M,mix_rauhhaar_dackel_schnauzer_pointer,SM,LL,10/06/2020,10/05/2021,11,2,5,training_wait,stay,stay,,10.05
subj_16,Herby,M,mix_rauhhaar_dackel_schnauzer_pointer,SM,LL,10/06/2020,10/05/2021,11,2,6,training_go,move,move,,1.2
subj_16,Herby,M,mix_rauhhaar_dackel_schnauzer_pointer,SM,LL,10/06/2020,10/05/2021,11,3,1,true_belief,move,move,,1.37
subj_16,Herby,M,mix_rauhhaar_dackel_schnauzer_pointer,SM,LL,10/06/2020,10/05/2021,11,3,2,training_wait,stay,stay,,10.53
subj_16,Herby,M,mix_rauhhaar_dackel_schnauzer_pointer,SM,LL,10/06/2020,10/05/2021,11,3,3,training_go,move,move,,1.47
subj_16,Herby,M,mix_rauhhaar_dackel_schnauzer_pointer,SM,LL,10/06/2020,10/05/2021,11,3,4,false_belief,stay,move,,0.92
subj_16,Herby,M,mix_rauhhaar_dackel_schnauzer_pointer,SM,LL,10/06/2020,10/05/2021,11,3,5,training_go,move,move,,1.47
subj_16,Herby,M,mix_rauhhaar_dackel_schnauzer_pointer,SM,LL,10/06/2020,10/05/2021,11,3,6,training_wait,stay,stay,,10.63
subj_16,Herby,M,mix_rauhhaar_dackel_schnauzer_pointer,SM,LL,10/06/2020,10/05/2021,11,4,1,false_belief,stay,move,,1.18
subj_16,Herby,M,mix_rauhhaar_dackel_schnauzer_pointer,SM,LL,10/06/2020,10/05/2021,11,4,2,training_go,move,move,,1.62
subj_16,Herby,M,mix_rauhhaar_dackel_schnauzer_pointer,SM,LL,10/06/2020,10/05/2021,11,4,3,training_wait,stay,stay,,10.82
subj_16,Herby,M,mix_rauhhaar_dackel_schnauzer_pointer,SM,LL,10/06/2020,10/05/2021,11,4,4,true_belief,move,move,,1.02
subj_16,Herby,M,mix_rauhhaar_dackel_schnauzer_pointer,SM,LL,10/06/2020,10/05/2021,11,4,5,training_wait,stay,stay,,10.77
subj_16,Herby,M,mix_rauhhaar_dackel_schnauzer_pointer,SM,LL,10/06/2020,10/05/2021,11,4,6,training_go,move,move,,1.05
subj_16,Herby,M,mix_rauhhaar_dackel_schnauzer_pointer,SM,LL,10/06/2020,10/05/2021,11,5,1,ignorant,,move,,0.98
subj_16,Herby,M,mix_rauhhaar_dackel_schnauzer_pointer,SM,LL,10/06/2020,10/05/2021,11,5,2,ignorant,,move,,0.8
subj_16,Herby,M,mix_rauhhaar_dackel_schnauzer_pointer,SM,LL,10/06/2020,10/05/2021,11,5,3,ignorant,,move,,0.92
subj_16,Herby,M,mix_rauhhaar_dackel_schnauzer_pointer,SM,LL,10/06/2020,10/05/2021,11,5,4,ignorant,,move,,0.87
subj_17,Butch,M,boxer,SM,MS,07/05/2019,03/05/2021,23,1,1,false_belief,stay,move,,1.33
subj_17,Butch,M,boxer,SM,MS,07/05/2019,03/05/2021,23,1,2,training_wait,stay,move,,1.1
subj_17,Butch,M,boxer,SM,MS,07/05/2019,03/05/2021,23,1,3,training_go,move,move,,1.4
subj_17,Butch,M,boxer,SM,MS,07/05/2019,03/05/2021,23,1,4,true_belief,move,move,,1.23
subj_17,Butch,M,boxer,SM,MS,07/05/2019,03/05/2021,23,1,5,training_go,move,move,,0.83
subj_17,Butch,M,boxer,SM,MS,07/05/2019,03/05/2021,23,1,6,training_wait,stay,move,,1.17
subj_17,Butch,M,boxer,SM,MS,07/05/2019,03/05/2021,23,2,1,true_belief,move,move,,0.82
subj_17,Butch,M,boxer,SM,MS,07/05/2019,03/05/2021,23,2,2,training_go,move,move,,0.72
subj_17,Butch,M,boxer,SM,MS,07/05/2019,03/05/2021,23,2,3,training_wait,stay,move,,1.22
subj_17,Butch,M,boxer,SM,MS,07/05/2019,03/05/2021,23,2,4,false_belief,stay,move,,0.97
subj_17,Butch,M,boxer,SM,MS,07/05/2019,03/05/2021,23,2,5,training_wait,stay,move,,1.43
subj_17,Butch,M,boxer,SM,MS,07/05/2019,03/05/2021,23,2,6,training_go,move,move,,1.03
subj_17,Butch,M,boxer,SM,MS,07/05/2019,03/05/2021,23,3,1,true_belief,move,move,,1.1
subj_17,Butch,M,boxer,SM,MS,07/05/2019,03/05/2021,23,3,2,training_wait,stay,stay,,10.78
subj_17,Butch,M,boxer,SM,MS,07/05/2019,03/05/2021,23,3,3,training_go,move,move,,0.97
subj_17,Butch,M,boxer,SM,MS,07/05/2019,03/05/2021,23,3,4,false_belief,stay,move,,1.4
subj_17,Butch,M,boxer,SM,MS,07/05/2019,03/05/2021,23,3,5,training_go,move,move,,1.08
subj_17,Butch,M,boxer,SM,MS,07/05/2019,03/05/2021,23,3,6,training_wait,stay,move,,1.53
subj_17,Butch,M,boxer,SM,MS,07/05/2019,03/05/2021,23,4,1,false_belief,stay,move,,1.25
subj_17,Butch,M,boxer,SM,MS,07/05/2019,03/05/2021,23,4,2,training_go,move,move,,1.15
subj_17,Butch,M,boxer,SM,MS,07/05/2019,03/05/2021,23,4,3,training_wait,stay,stay,,10.33
subj_17,Butch,M,boxer,SM,MS,07/05/2019,03/05/2021,23,4,4,true_belief,move,move,,1.45
subj_17,Butch,M,boxer,SM,MS,07/05/2019,03/05/2021,23,4,5,training_wait,stay,move,,2.35
subj_17,Butch,M,boxer,SM,MS,07/05/2019,03/05/2021,23,4,6,training_go,move,move,,1.62
subj_17,Butch,M,boxer,SM,MS,07/05/2019,03/05/2021,23,5,1,ignorant,,move,,0.97
subj_17,Butch,M,boxer,SM,MS,07/05/2019,03/05/2021,23,5,2,ignorant,,move,,0.9
subj_17,Butch,M,boxer,SM,MS,07/05/2019,03/05/2021,23,5,3,ignorant,,move,,1.2
subj_17,Butch,M,boxer,SM,MS,07/05/2019,03/05/2021,23,5,4,ignorant,,move,,0.92
subj_18,Jolie,F,mix_pinscher_whippet,SM,MS,04/04/2010,05/05/2021,133,1,1,true_belief,move,move,,1.07
subj_18,Jolie,F,mix_pinscher_whippet,SM,MS,04/04/2010,05/05/2021,133,1,2,training_go,move,move,,1.73
subj_18,Jolie,F,mix_pinscher_whippet,SM,MS,04/04/2010,05/05/2021,133,1,3,training_wait,stay,stay,,10.95
subj_18,Jolie,F,mix_pinscher_whippet,SM,MS,04/04/2010,05/05/2021,133,1,4,false_belief,stay,move,,0.95
subj_18,Jolie,F,mix_pinscher_whippet,SM,MS,04/04/2010,05/05/2021,133,1,5,training_wait,stay,stay,,9.82
subj_18,Jolie,F,mix_pinscher_whippet,SM,MS,04/04/2010,05/05/2021,133,1,6,training_go,move,move,,1.4
subj_18,Jolie,F,mix_pinscher_whippet,SM,MS,04/04/2010,05/05/2021,133,2,1,false_belief,stay,move,,1.2
subj_18,Jolie,F,mix_pinscher_whippet,SM,MS,04/04/2010,05/05/2021,133,2,2,training_wait,stay,stay,,11.03
subj_18,Jolie,F,mix_pinscher_whippet,SM,MS,04/04/2010,05/05/2021,133,2,3,training_go,move,move,,1.72
subj_18,Jolie,F,mix_pinscher_whippet,SM,MS,04/04/2010,05/05/2021,133,2,4,true_belief,move,move,,1.38
subj_18,Jolie,F,mix_pinscher_whippet,SM,MS,04/04/2010,05/05/2021,133,2,5,training_go,move,move,,1.52
subj_18,Jolie,F,mix_pinscher_whippet,SM,MS,04/04/2010,05/05/2021,133,2,6,training_wait,stay,stay,,10.73
subj_18,Jolie,F,mix_pinscher_whippet,SM,MS,04/04/2010,05/05/2021,133,3,1,false_belief,stay,move,,1.15
subj_18,Jolie,F,mix_pinscher_whippet,SM,MS,04/04/2010,05/05/2021,133,3,2,training_go,move,move,,1.68
subj_18,Jolie,F,mix_pinscher_whippet,SM,MS,04/04/2010,05/05/2021,133,3,3,training_wait,stay,move,,1.8
subj_18,Jolie,F,mix_pinscher_whippet,SM,MS,04/04/2010,05/05/2021,133,3,4,true_belief,move,move,,1.53
subj_18,Jolie,F,mix_pinscher_whippet,SM,MS,04/04/2010,05/05/2021,133,3,5,training_wait,stay,stay,,10.6
subj_18,Jolie,F,mix_pinscher_whippet,SM,MS,04/04/2010,05/05/2021,133,3,6,training_go,move,move,,1.42
subj_18,Jolie,F,mix_pinscher_whippet,SM,MS,04/04/2010,05/05/2021,133,4,1,true_belief,move,move,,1.45
subj_18,Jolie,F,mix_pinscher_whippet,SM,MS,04/04/2010,05/05/2021,133,4,2,training_wait,stay,stay,,10.67
subj_18,Jolie,F,mix_pinscher_whippet,SM,MS,04/04/2010,05/05/2021,133,4,3,training_go,move,move,,1.27
subj_18,Jolie,F,mix_pinscher_whippet,SM,MS,04/04/2010,05/05/2021,133,4,4,false_belief,stay,move,,1.22
subj_18,Jolie,F,mix_pinscher_whippet,SM,MS,04/04/2010,05/05/2021,133,4,5,training_go,move,stay,,11.9
subj_18,Jolie,F,mix_pinscher_whippet,SM,MS,04/04/2010,05/05/2021,133,4,6,training_wait,stay,move,,1.32
subj_18,Jolie,F,mix_pinscher_whippet,SM,MS,04/04/2010,05/05/2021,133,5,1,ignorant,,move,,1.23
subj_18,Jolie,F,mix_pinscher_whippet,SM,MS,04/04/2010,05/05/2021,133,5,2,ignorant,,move,,1.17
subj_18,Jolie,F,mix_pinscher_whippet,SM,MS,04/04/2010,05/05/2021,133,5,3,ignorant,,move,,1.25
subj_18,Jolie,F,mix_pinscher_whippet,SM,MS,04/04/2010,05/05/2021,133,5,4,ignorant,,move,,1.25
subj_19,Lumi,F,mix_collie_setter,SM,LL,14/05/2019,06/05/2021,23,1,1,false_belief,stay,move,,0.97
subj_19,Lumi,F,mix_collie_setter,SM,LL,14/05/2019,06/05/2021,23,1,2,training_wait,stay,stay,,10.48
subj_19,Lumi,F,mix_collie_setter,SM,LL,14/05/2019,06/05/2021,23,1,3,training_go,move,move,,2.05
subj_19,Lumi,F,mix_collie_setter,SM,LL,14/05/2019,06/05/2021,23,1,4,true_belief,move,move,,1.43
subj_19,Lumi,F,mix_collie_setter,SM,LL,14/05/2019,06/05/2021,23,1,5,training_go,move,move,,1.08
subj_19,Lumi,F,mix_collie_setter,SM,LL,14/05/2019,06/05/2021,23,1,6,training_wait,stay,stay,,10.4
subj_19,Lumi,F,mix_collie_setter,SM,LL,14/05/2019,06/05/2021,23,2,1,true_belief,move,move,,1.28
subj_19,Lumi,F,mix_collie_setter,SM,LL,14/05/2019,06/05/2021,23,2,2,training_go,move,move,,1.23
subj_19,Lumi,F,mix_collie_setter,SM,LL,14/05/2019,06/05/2021,23,2,3,training_wait,stay,stay,,10.7
subj_19,Lumi,F,mix_collie_setter,SM,LL,14/05/2019,06/05/2021,23,2,4,false_belief,stay,move,,1.05
subj_19,Lumi,F,mix_collie_setter,SM,LL,14/05/2019,06/05/2021,23,2,5,training_wait,stay,stay,,10.32
subj_19,Lumi,F,mix_collie_setter,SM,LL,14/05/2019,06/05/2021,23,2,6,training_go,move,move,,1.5
subj_19,Lumi,F,mix_collie_setter,SM,LL,14/05/2019,06/05/2021,23,3,1,false_belief,stay,move,,1.43
subj_19,Lumi,F,mix_collie_setter,SM,LL,14/05/2019,06/05/2021,23,3,2,training_wait,stay,stay,,10.6
subj_19,Lumi,F,mix_collie_setter,SM,LL,14/05/2019,06/05/2021,23,3,3,training_go,move,stay,,11.38
subj_19,Lumi,F,mix_collie_setter,SM,LL,14/05/2019,06/05/2021,23,3,4,true_belief,move,stay,,11.08
subj_19,Lumi,F,mix_collie_setter,SM,LL,14/05/2019,06/05/2021,23,3,5,training_go,move,stay,,11.42
subj_19,Lumi,F,mix_collie_setter,SM,LL,14/05/2019,06/05/2021,23,3,6,training_wait,stay,stay,,10.48
subj_19,Lumi,F,mix_collie_setter,SM,LL,14/05/2019,06/05/2021,23,4,1,true_belief,move,move,,1.05
subj_19,Lumi,F,mix_collie_setter,SM,LL,14/05/2019,06/05/2021,23,4,2,training_go,move,move,,1
subj_19,Lumi,F,mix_collie_setter,SM,LL,14/05/2019,06/05/2021,23,4,3,training_wait,stay,stay,,11
subj_19,Lumi,F,mix_collie_setter,SM,LL,14/05/2019,06/05/2021,23,4,4,false_belief,stay,move,,1.15
subj_19,Lumi,F,mix_collie_setter,SM,LL,14/05/2019,06/05/2021,23,4,5,training_wait,stay,move,,1.17
subj_19,Lumi,F,mix_collie_setter,SM,LL,14/05/2019,06/05/2021,23,4,6,training_go,move,move,,1.92
subj_19,Lumi,F,mix_collie_setter,SM,LL,14/05/2019,06/05/2021,23,5,1,ignorant,,move,,1.02
subj_19,Lumi,F,mix_collie_setter,SM,LL,14/05/2019,06/05/2021,23,5,2,ignorant,,move,,1.23
subj_19,Lumi,F,mix_collie_setter,SM,LL,14/05/2019,06/05/2021,23,5,3,ignorant,,move,,1.3
subj_19,Lumi,F,mix_collie_setter,SM,LL,14/05/2019,06/05/2021,23,5,4,ignorant,,move,,1.15
subj_20,Manni2,M,pyrenaen_sheep,SM,MS,31/05/2016,05/05/2021,59,1,1,true_belief,move,move,,0.93
subj_20,Manni2,M,pyrenaen_sheep,SM,MS,31/05/2016,05/05/2021,59,1,2,training_go,move,move,,1.42
subj_20,Manni2,M,pyrenaen_sheep,SM,MS,31/05/2016,05/05/2021,59,1,3,training_wait,stay,move,,1.92
subj_20,Manni2,M,pyrenaen_sheep,SM,MS,31/05/2016,05/05/2021,59,1,4,false_belief,stay,move,,1.65
subj_20,Manni2,M,pyrenaen_sheep,SM,MS,31/05/2016,05/05/2021,59,1,5,training_wait,stay,stay,,10.77
subj_20,Manni2,M,pyrenaen_sheep,SM,MS,31/05/2016,05/05/2021,59,1,6,training_go,move,stay,,11.25
subj_20,Manni2,M,pyrenaen_sheep,SM,MS,31/05/2016,05/05/2021,59,2,1,false_belief,stay,move,,1.92
subj_20,Manni2,M,pyrenaen_sheep,SM,MS,31/05/2016,05/05/2021,59,2,2,training_wait,stay,stay,,11.27
subj_20,Manni2,M,pyrenaen_sheep,SM,MS,31/05/2016,05/05/2021,59,2,3,training_go,move,stay,,10.98
subj_20,Manni2,M,pyrenaen_sheep,SM,MS,31/05/2016,05/05/2021,59,2,4,true_belief,move,stay,,10.9
subj_20,Manni2,M,pyrenaen_sheep,SM,MS,31/05/2016,05/05/2021,59,2,5,training_go,move,stay,,11.2
subj_20,Manni2,M,pyrenaen_sheep,SM,MS,31/05/2016,05/05/2021,59,2,6,training_wait,stay,move,,7.55
subj_20,Manni2,M,pyrenaen_sheep,SM,MS,31/05/2016,05/05/2021,59,3,1,true_belief,move,stay,,11.23
subj_20,Manni2,M,pyrenaen_sheep,SM,MS,31/05/2016,05/05/2021,59,3,2,training_go,move,move,,1.22
subj_20,Manni2,M,pyrenaen_sheep,SM,MS,31/05/2016,05/05/2021,59,3,3,training_wait,stay,stay,,10.08
subj_20,Manni2,M,pyrenaen_sheep,SM,MS,31/05/2016,05/05/2021,59,3,4,false_belief,stay,stay,,11.67
subj_20,Manni2,M,pyrenaen_sheep,SM,MS,31/05/2016,05/05/2021,59,3,5,training_wait,stay,stay,,11.67
subj_20,Manni2,M,pyrenaen_sheep,SM,MS,31/05/2016,05/05/2021,59,3,6,training_go,move,move,,7.8
subj_20,Manni2,M,pyrenaen_sheep,SM,MS,31/05/2016,05/05/2021,59,4,1,false_belief,stay,move,,1.73
subj_20,Manni2,M,pyrenaen_sheep,SM,MS,31/05/2016,05/05/2021,59,4,2,training_wait,stay,stay,,10.1
subj_20,Manni2,M,pyrenaen_sheep,SM,MS,31/05/2016,05/05/2021,59,4,3,training_go,move,stay,,10.78
subj_20,Manni2,M,pyrenaen_sheep,SM,MS,31/05/2016,05/05/2021,59,4,4,true_belief,move,stay,,10.47
subj_20,Manni2,M,pyrenaen_sheep,SM,MS,31/05/2016,05/05/2021,59,4,5,training_go,move,stay,,11.25
subj_20,Manni2,M,pyrenaen_sheep,SM,MS,31/05/2016,05/05/2021,59,4,6,training_wait,stay,stay,,10.98
subj_20,Manni2,M,pyrenaen_sheep,SM,MS,31/05/2016,05/05/2021,59,5,1,ignorant,,stay,,12.4
subj_20,Manni2,M,pyrenaen_sheep,SM,MS,31/05/2016,05/05/2021,59,5,2,ignorant,,move,,9.77
subj_20,Manni2,M,pyrenaen_sheep,SM,MS,31/05/2016,05/05/2021,59,5,3,ignorant,,stay,,12.18
subj_20,Manni2,M,pyrenaen_sheep,SM,MS,31/05/2016,05/05/2021,59,5,4,ignorant,,move,,8.2
subj_21,Balou3,M,brittany_spaniel,SM,LL,03/02/2016,06/05/2021,63,1,1,false_belief,stay,move,,1.07
subj_21,Balou3,M,brittany_spaniel,SM,LL,03/02/2016,06/05/2021,63,1,2,training_go,move,move,,1.93
subj_21,Balou3,M,brittany_spaniel,SM,LL,03/02/2016,06/05/2021,63,1,3,training_wait,stay,stay,,10.48
subj_21,Balou3,M,brittany_spaniel,SM,LL,03/02/2016,06/05/2021,63,1,4,true_belief,move,move,,1.23
subj_21,Balou3,M,brittany_spaniel,SM,LL,03/02/2016,06/05/2021,63,1,5,training_wait,stay,stay,,10.98
subj_21,Balou3,M,brittany_spaniel,SM,LL,03/02/2016,06/05/2021,63,1,6,training_go,move,stay,,10.98
subj_21,Balou3,M,brittany_spaniel,SM,LL,03/02/2016,06/05/2021,63,2,1,true_belief,move,move,,1.22
subj_21,Balou3,M,brittany_spaniel,SM,LL,03/02/2016,06/05/2021,63,2,2,training_wait,stay,stay,,10.77
subj_21,Balou3,M,brittany_spaniel,SM,LL,03/02/2016,06/05/2021,63,2,3,training_go,move,move,,8.95
subj_21,Balou3,M,brittany_spaniel,SM,LL,03/02/2016,06/05/2021,63,2,4,false_belief,stay,move,,1.17
subj_21,Balou3,M,brittany_spaniel,SM,LL,03/02/2016,06/05/2021,63,2,5,training_go,move,move,,2.1
subj_21,Balou3,M,brittany_spaniel,SM,LL,03/02/2016,06/05/2021,63,2,6,training_wait,stay,stay,,10.18
subj_21,Balou3,M,brittany_spaniel,SM,LL,03/02/2016,06/05/2021,63,3,1,true_belief,move,move,,1.33
subj_21,Balou3,M,brittany_spaniel,SM,LL,03/02/2016,06/05/2021,63,3,2,training_go,move,move,,10.12
subj_21,Balou3,M,brittany_spaniel,SM,LL,03/02/2016,06/05/2021,63,3,3,training_wait,stay,stay,,10.68
subj_21,Balou3,M,brittany_spaniel,SM,LL,03/02/2016,06/05/2021,63,3,4,false_belief,stay,move,,1.12
subj_21,Balou3,M,brittany_spaniel,SM,LL,03/02/2016,06/05/2021,63,3,5,training_wait,stay,stay,,10.62
subj_21,Balou3,M,brittany_spaniel,SM,LL,03/02/2016,06/05/2021,63,3,6,training_go,move,stay,,10.98
subj_21,Balou3,M,brittany_spaniel,SM,LL,03/02/2016,06/05/2021,63,4,1,false_belief,stay,move,,1.18
subj_21,Balou3,M,brittany_spaniel,SM,LL,03/02/2016,06/05/2021,63,4,2,training_wait,stay,stay,,10.32
subj_21,Balou3,M,brittany_spaniel,SM,LL,03/02/2016,06/05/2021,63,4,3,training_go,move,stay,,11.38
subj_21,Balou3,M,brittany_spaniel,SM,LL,03/02/2016,06/05/2021,63,4,4,true_belief,move,move,,1.62
subj_21,Balou3,M,brittany_spaniel,SM,LL,03/02/2016,06/05/2021,63,4,5,training_go,move,move,,7
subj_21,Balou3,M,brittany_spaniel,SM,LL,03/02/2016,06/05/2021,63,4,6,training_wait,stay,stay,,10.4
subj_21,Balou3,M,brittany_spaniel,SM,LL,03/02/2016,06/05/2021,63,5,1,ignorant,,move,,1.45
subj_21,Balou3,M,brittany_spaniel,SM,LL,03/02/2016,06/05/2021,63,5,2,ignorant,,move,,1.23
subj_21,Balou3,M,brittany_spaniel,SM,LL,03/02/2016,06/05/2021,63,5,3,ignorant,,move,,1.3
subj_21,Balou3,M,brittany_spaniel,SM,LL,03/02/2016,06/05/2021,63,5,4,ignorant,,move,,1.13
subj_22,Pepper3,F,parson_russel_terrier,SM,LL,15/03/2018,06/05/2021,37,1,1,true_belief,move,move,,0.88
subj_22,Pepper3,F,parson_russel_terrier,SM,LL,15/03/2018,06/05/2021,37,1,2,training_wait,stay,stay,,10.62
subj_22,Pepper3,F,parson_russel_terrier,SM,LL,15/03/2018,06/05/2021,37,1,3,training_go,move,move,,0.82
subj_22,Pepper3,F,parson_russel_terrier,SM,LL,15/03/2018,06/05/2021,37,1,4,false_belief,stay,move,,0.83
subj_22,Pepper3,F,parson_russel_terrier,SM,LL,15/03/2018,06/05/2021,37,1,5,training_go,move,stay,,11.4
subj_22,Pepper3,F,parson_russel_terrier,SM,LL,15/03/2018,06/05/2021,37,1,6,training_wait,stay,stay,,11
subj_22,Pepper3,F,parson_russel_terrier,SM,LL,15/03/2018,06/05/2021,37,2,1,false_belief,stay,move,,1.43
subj_22,Pepper3,F,parson_russel_terrier,SM,LL,15/03/2018,06/05/2021,37,2,2,training_go,move,stay,,10.88
subj_22,Pepper3,F,parson_russel_terrier,SM,LL,15/03/2018,06/05/2021,37,2,3,training_wait,stay,stay,,10.88
subj_22,Pepper3,F,parson_russel_terrier,SM,LL,15/03/2018,06/05/2021,37,2,4,true_belief,move,move,,0.92
subj_22,Pepper3,F,parson_russel_terrier,SM,LL,15/03/2018,06/05/2021,37,2,5,training_wait,stay,stay,,10.6
subj_22,Pepper3,F,parson_russel_terrier,SM,LL,15/03/2018,06/05/2021,37,2,6,training_go,move,stay,,11.65
subj_22,Pepper3,F,parson_russel_terrier,SM,LL,15/03/2018,06/05/2021,37,3,1,false_belief,stay,move,,0.72
subj_22,Pepper3,F,parson_russel_terrier,SM,LL,15/03/2018,06/05/2021,37,3,2,training_wait,stay,stay,,11.03
subj_22,Pepper3,F,parson_russel_terrier,SM,LL,15/03/2018,06/05/2021,37,3,3,training_go,move,stay,,11.67
subj_22,Pepper3,F,parson_russel_terrier,SM,LL,15/03/2018,06/05/2021,37,3,4,true_belief,move,stay,,10.97
subj_22,Pepper3,F,parson_russel_terrier,SM,LL,15/03/2018,06/05/2021,37,3,5,training_go,move,move,,0.98
subj_22,Pepper3,F,parson_russel_terrier,SM,LL,15/03/2018,06/05/2021,37,3,6,training_wait,stay,stay,,10.75
subj_22,Pepper3,F,parson_russel_terrier,SM,LL,15/03/2018,06/05/2021,37,4,1,true_belief,move,move,,2.1
subj_22,Pepper3,F,parson_russel_terrier,SM,LL,15/03/2018,06/05/2021,37,4,2,training_go,move,move,,1.07
subj_22,Pepper3,F,parson_russel_terrier,SM,LL,15/03/2018,06/05/2021,37,4,3,training_wait,stay,stay,,10.53
subj_22,Pepper3,F,parson_russel_terrier,SM,LL,15/03/2018,06/05/2021,37,4,4,false_belief,stay,move,,0.73
subj_22,Pepper3,F,parson_russel_terrier,SM,LL,15/03/2018,06/05/2021,37,4,5,training_wait,stay,stay,,10.57
subj_22,Pepper3,F,parson_russel_terrier,SM,LL,15/03/2018,06/05/2021,37,4,6,training_go,move,move,,1.07
subj_22,Pepper3,F,parson_russel_terrier,SM,LL,15/03/2018,06/05/2021,37,5,1,ignorant,,move,,0.98
subj_22,Pepper3,F,parson_russel_terrier,SM,LL,15/03/2018,06/05/2021,37,5,2,ignorant,,move,,0.97
subj_22,Pepper3,F,parson_russel_terrier,SM,LL,15/03/2018,06/05/2021,37,5,3,ignorant,,move,,1.05
subj_22,Pepper3,F,parson_russel_terrier,SM,LL,15/03/2018,06/05/2021,37,5,4,ignorant,,move,,1.05
subj_23,Mia11,F,mix_german_short_haired_pointing_dog,SM,LL,01/10/2018,13/05/2021,31,1,1,false_belief,stay,move,,0.98
subj_23,Mia11,F,mix_german_short_haired_pointing_dog,SM,LL,01/10/2018,13/05/2021,31,1,2,training_go,move,move,,1.18
subj_23,Mia11,F,mix_german_short_haired_pointing_dog,SM,LL,01/10/2018,13/05/2021,31,1,3,training_wait,stay,stay,,10.85
subj_23,Mia11,F,mix_german_short_haired_pointing_dog,SM,LL,01/10/2018,13/05/2021,31,1,4,true_belief,move,move,,1.03
subj_23,Mia11,F,mix_german_short_haired_pointing_dog,SM,LL,01/10/2018,13/05/2021,31,1,5,training_wait,stay,stay,,10.42
subj_23,Mia11,F,mix_german_short_haired_pointing_dog,SM,LL,01/10/2018,13/05/2021,31,1,6,training_go,move,move,,1.47
subj_23,Mia11,F,mix_german_short_haired_pointing_dog,SM,LL,01/10/2018,13/05/2021,31,2,1,true_belief,move,move,,0.98
subj_23,Mia11,F,mix_german_short_haired_pointing_dog,SM,LL,01/10/2018,13/05/2021,31,2,2,training_wait,stay,move,,1.98
subj_23,Mia11,F,mix_german_short_haired_pointing_dog,SM,LL,01/10/2018,13/05/2021,31,2,3,training_go,move,move,,1.58
subj_23,Mia11,F,mix_german_short_haired_pointing_dog,SM,LL,01/10/2018,13/05/2021,31,2,4,false_belief,stay,move,,1.07
subj_23,Mia11,F,mix_german_short_haired_pointing_dog,SM,LL,01/10/2018,13/05/2021,31,2,5,training_go,move,move,,1.27
subj_23,Mia11,F,mix_german_short_haired_pointing_dog,SM,LL,01/10/2018,13/05/2021,31,2,6,training_wait,stay,stay,,10.35
subj_23,Mia11,F,mix_german_short_haired_pointing_dog,SM,LL,01/10/2018,13/05/2021,31,3,1,false_belief,stay,move,,1.12
subj_23,Mia11,F,mix_german_short_haired_pointing_dog,SM,LL,01/10/2018,13/05/2021,31,3,2,training_go,move,move,,1.77
subj_23,Mia11,F,mix_german_short_haired_pointing_dog,SM,LL,01/10/2018,13/05/2021,31,3,3,training_wait,stay,stay,,10.5
subj_23,Mia11,F,mix_german_short_haired_pointing_dog,SM,LL,01/10/2018,13/05/2021,31,3,4,true_belief,move,move,,1.17
subj_23,Mia11,F,mix_german_short_haired_pointing_dog,SM,LL,01/10/2018,13/05/2021,31,3,5,training_wait,stay,stay,,10.35
subj_23,Mia11,F,mix_german_short_haired_pointing_dog,SM,LL,01/10/2018,13/05/2021,31,3,6,training_go,move,move,,1.32
subj_23,Mia11,F,mix_german_short_haired_pointing_dog,SM,LL,01/10/2018,13/05/2021,31,4,1,true_belief,move,move,,1.23
subj_23,Mia11,F,mix_german_short_haired_pointing_dog,SM,LL,01/10/2018,13/05/2021,31,4,2,training_wait,stay,stay,,10.18
subj_23,Mia11,F,mix_german_short_haired_pointing_dog,SM,LL,01/10/2018,13/05/2021,31,4,3,training_go,move,move,,1.33
subj_23,Mia11,F,mix_german_short_haired_pointing_dog,SM,LL,01/10/2018,13/05/2021,31,4,4,false_belief,stay,move,,1.67
subj_23,Mia11,F,mix_german_short_haired_pointing_dog,SM,LL,01/10/2018,13/05/2021,31,4,5,training_go,move,move,,1.9
subj_23,Mia11,F,mix_german_short_haired_pointing_dog,SM,LL,01/10/2018,13/05/2021,31,4,6,training_wait,stay,stay,,10.6
subj_23,Mia11,F,mix_german_short_haired_pointing_dog,SM,LL,01/10/2018,13/05/2021,31,5,1,ignorant,,stay,,11.22
subj_23,Mia11,F,mix_german_short_haired_pointing_dog,SM,LL,01/10/2018,13/05/2021,31,5,2,ignorant,,move,,1.97
subj_23,Mia11,F,mix_german_short_haired_pointing_dog,SM,LL,01/10/2018,13/05/2021,31,5,3,ignorant,,move,,1.97
subj_23,Mia11,F,mix_german_short_haired_pointing_dog,SM,LL,01/10/2018,13/05/2021,31,5,4,ignorant,,move,,1.38
subj_24,Felix6,M,german_spitz_pomeranian,SM,LL,17/12/2015,07/05/2021,64,1,1,true_belief,move,move,,1.12
subj_24,Felix6,M,german_spitz_pomeranian,SM,LL,17/12/2015,07/05/2021,64,1,2,training_wait,stay,move,,1.07
subj_24,Felix6,M,german_spitz_pomeranian,SM,LL,17/12/2015,07/05/2021,64,1,3,training_go,move,move,,0.88
subj_24,Felix6,M,german_spitz_pomeranian,SM,LL,17/12/2015,07/05/2021,64,1,4,false_belief,stay,move,,0.98
subj_24,Felix6,M,german_spitz_pomeranian,SM,LL,17/12/2015,07/05/2021,64,1,5,training_go,move,move,,0.97
subj_24,Felix6,M,german_spitz_pomeranian,SM,LL,17/12/2015,07/05/2021,64,1,6,training_wait,stay,move,,1.22
subj_24,Felix6,M,german_spitz_pomeranian,SM,LL,17/12/2015,07/05/2021,64,2,1,false_belief,stay,move,,0.88
subj_24,Felix6,M,german_spitz_pomeranian,SM,LL,17/12/2015,07/05/2021,64,2,2,training_go,move,move,,1.55
subj_24,Felix6,M,german_spitz_pomeranian,SM,LL,17/12/2015,07/05/2021,64,2,3,training_wait,stay,move,,1.3
subj_24,Felix6,M,german_spitz_pomeranian,SM,LL,17/12/2015,07/05/2021,64,2,4,true_belief,move,move,,1.13
subj_24,Felix6,M,german_spitz_pomeranian,SM,LL,17/12/2015,07/05/2021,64,2,5,training_wait,stay,stay,,11.12
subj_24,Felix6,M,german_spitz_pomeranian,SM,LL,17/12/2015,07/05/2021,64,2,6,training_go,move,move,,1.2
subj_24,Felix6,M,german_spitz_pomeranian,SM,LL,17/12/2015,07/05/2021,64,3,1,true_belief,move,move,,1.3
subj_24,Felix6,M,german_spitz_pomeranian,SM,LL,17/12/2015,07/05/2021,64,3,2,training_wait,stay,move,,1.42
subj_24,Felix6,M,german_spitz_pomeranian,SM,LL,17/12/2015,07/05/2021,64,3,3,training_go,move,move,,1.37
subj_24,Felix6,M,german_spitz_pomeranian,SM,LL,17/12/2015,07/05/2021,64,3,4,false_belief,stay,move,,1.32
subj_24,Felix6,M,german_spitz_pomeranian,SM,LL,17/12/2015,07/05/2021,64,3,5,training_go,move,move,,1.6
subj_24,Felix6,M,german_spitz_pomeranian,SM,LL,17/12/2015,07/05/2021,64,3,6,training_wait,stay,move,,1.4
subj_24,Felix6,M,german_spitz_pomeranian,SM,LL,17/12/2015,07/05/2021,64,4,1,false_belief,stay,move,,1.1
subj_24,Felix6,M,german_spitz_pomeranian,SM,LL,17/12/2015,07/05/2021,64,4,2,training_go,move,stay,,10.88
subj_24,Felix6,M,german_spitz_pomeranian,SM,LL,17/12/2015,07/05/2021,64,4,3,training_wait,stay,stay,,10.77
subj_24,Felix6,M,german_spitz_pomeranian,SM,LL,17/12/2015,07/05/2021,64,4,4,true_belief,move,stay,,11.3
subj_24,Felix6,M,german_spitz_pomeranian,SM,LL,17/12/2015,07/05/2021,64,4,5,training_wait,stay,stay,,11.72
subj_24,Felix6,M,german_spitz_pomeranian,SM,LL,17/12/2015,07/05/2021,64,4,6,training_go,move,move,,1.6
subj_24,Felix6,M,german_spitz_pomeranian,SM,LL,17/12/2015,07/05/2021,64,5,1,ignorant,,move,,1.17
subj_24,Felix6,M,german_spitz_pomeranian,SM,LL,17/12/2015,07/05/2021,64,5,2,ignorant,,move,,0.95
subj_24,Felix6,M,german_spitz_pomeranian,SM,LL,17/12/2015,07/05/2021,64,5,3,ignorant,,move,,1.37
subj_24,Felix6,M,german_spitz_pomeranian,SM,LL,17/12/2015,07/05/2021,64,5,4,ignorant,,move,,1.12
subj_25,Alfonso,M,mix_havanese,SM,LL,01/10/2015,07/05/2021,67,1,1,false_belief,stay,move,,0.93
subj_25,Alfonso,M,mix_havanese,SM,LL,01/10/2015,07/05/2021,67,1,2,training_wait,stay,move,,1.1
subj_25,Alfonso,M,mix_havanese,SM,LL,01/10/2015,07/05/2021,67,1,3,training_go,move,move,,12.2
subj_25,Alfonso,M,mix_havanese,SM,LL,01/10/2015,07/05/2021,67,1,4,true_belief,move,move,,0.95
subj_25,Alfonso,M,mix_havanese,SM,LL,01/10/2015,07/05/2021,67,1,5,training_go,move,stay,,10.77
subj_25,Alfonso,M,mix_havanese,SM,LL,01/10/2015,07/05/2021,67,1,6,training_wait,stay,move,,1.5
subj_25,Alfonso,M,mix_havanese,SM,LL,01/10/2015,07/05/2021,67,2,1,true_belief,move,move,,1.05
subj_25,Alfonso,M,mix_havanese,SM,LL,01/10/2015,07/05/2021,67,2,2,training_go,move,stay,,10.95
subj_25,Alfonso,M,mix_havanese,SM,LL,01/10/2015,07/05/2021,67,2,3,training_wait,stay,stay,,10.98
subj_25,Alfonso,M,mix_havanese,SM,LL,01/10/2015,07/05/2021,67,2,4,false_belief,stay,move,,1.38
subj_25,Alfonso,M,mix_havanese,SM,LL,01/10/2015,07/05/2021,67,2,5,training_wait,stay,stay,,10.4
subj_25,Alfonso,M,mix_havanese,SM,LL,01/10/2015,07/05/2021,67,2,6,training_go,move,stay,,11.17
subj_25,Alfonso,M,mix_havanese,SM,LL,01/10/2015,07/05/2021,67,3,1,true_belief,move,stay,,10.83
subj_25,Alfonso,M,mix_havanese,SM,LL,01/10/2015,07/05/2021,67,3,2,training_wait,stay,stay,,10.82
subj_25,Alfonso,M,mix_havanese,SM,LL,01/10/2015,07/05/2021,67,3,3,training_go,move,move,,1.05
subj_25,Alfonso,M,mix_havanese,SM,LL,01/10/2015,07/05/2021,67,3,4,false_belief,stay,move,,1.17
subj_25,Alfonso,M,mix_havanese,SM,LL,01/10/2015,07/05/2021,67,3,5,training_go,move,stay,,11.13
subj_25,Alfonso,M,mix_havanese,SM,LL,01/10/2015,07/05/2021,67,3,6,training_wait,stay,stay,,10.45
subj_25,Alfonso,M,mix_havanese,SM,LL,01/10/2015,07/05/2021,67,4,1,false_belief,stay,move,,1.13
subj_25,Alfonso,M,mix_havanese,SM,LL,01/10/2015,07/05/2021,67,4,2,training_go,move,stay,,10.78
subj_25,Alfonso,M,mix_havanese,SM,LL,01/10/2015,07/05/2021,67,4,3,training_wait,stay,stay,,10.28
subj_25,Alfonso,M,mix_havanese,SM,LL,01/10/2015,07/05/2021,67,4,4,true_belief,move,move,,1.47
subj_25,Alfonso,M,mix_havanese,SM,LL,01/10/2015,07/05/2021,67,4,5,training_wait,stay,stay,,9.97
subj_25,Alfonso,M,mix_havanese,SM,LL,01/10/2015,07/05/2021,67,4,6,training_go,move,stay,,10.68
subj_25,Alfonso,M,mix_havanese,SM,LL,01/10/2015,07/05/2021,67,5,1,ignorant,,move,,1.22
subj_25,Alfonso,M,mix_havanese,SM,LL,01/10/2015,07/05/2021,67,5,2,ignorant,,move,,1
subj_25,Alfonso,M,mix_havanese,SM,LL,01/10/2015,07/05/2021,67,5,3,ignorant,,move,,1.23
subj_25,Alfonso,M,mix_havanese,SM,LL,01/10/2015,07/05/2021,67,5,4,ignorant,,move,,1.12
subj_26,Flamme,M,pyrenaen_sheep,SM,LL,09/03/2008,12/05/2021,158,1,1,true_belief,move,move,,0.82
subj_26,Flamme,M,pyrenaen_sheep,SM,LL,09/03/2008,12/05/2021,158,1,2,training_go,move,move,,0.7
subj_26,Flamme,M,pyrenaen_sheep,SM,LL,09/03/2008,12/05/2021,158,1,3,training_wait,stay,stay,,10.4
subj_26,Flamme,M,pyrenaen_sheep,SM,LL,09/03/2008,12/05/2021,158,1,4,false_belief,stay,move,,1
subj_26,Flamme,M,pyrenaen_sheep,SM,LL,09/03/2008,12/05/2021,158,1,5,training_wait,stay,move,,1.32
subj_26,Flamme,M,pyrenaen_sheep,SM,LL,09/03/2008,12/05/2021,158,1,6,training_go,move,move,,0.9
subj_26,Flamme,M,pyrenaen_sheep,SM,LL,09/03/2008,12/05/2021,158,2,1,false_belief,stay,move,,0.97
subj_26,Flamme,M,pyrenaen_sheep,SM,LL,09/03/2008,12/05/2021,158,2,2,training_wait,stay,stay,,10.42
subj_26,Flamme,M,pyrenaen_sheep,SM,LL,09/03/2008,12/05/2021,158,2,3,training_go,move,move,,0.77
subj_26,Flamme,M,pyrenaen_sheep,SM,LL,09/03/2008,12/05/2021,158,2,4,true_belief,move,move,,0.93
subj_26,Flamme,M,pyrenaen_sheep,SM,LL,09/03/2008,12/05/2021,158,2,5,training_go,move,move,,0.95
subj_26,Flamme,M,pyrenaen_sheep,SM,LL,09/03/2008,12/05/2021,158,2,6,training_wait,stay,move,,1.02
subj_26,Flamme,M,pyrenaen_sheep,SM,LL,09/03/2008,12/05/2021,158,3,1,false_belief,stay,move,,1
subj_26,Flamme,M,pyrenaen_sheep,SM,LL,09/03/2008,12/05/2021,158,3,2,training_go,move,move,,0.95
subj_26,Flamme,M,pyrenaen_sheep,SM,LL,09/03/2008,12/05/2021,158,3,3,training_wait,stay,stay,,9.97
subj_26,Flamme,M,pyrenaen_sheep,SM,LL,09/03/2008,12/05/2021,158,3,4,true_belief,move,move,,0.83
subj_26,Flamme,M,pyrenaen_sheep,SM,LL,09/03/2008,12/05/2021,158,3,5,training_wait,stay,stay,,10.15
subj_26,Flamme,M,pyrenaen_sheep,SM,LL,09/03/2008,12/05/2021,158,3,6,training_go,move,move,,0.98
subj_26,Flamme,M,pyrenaen_sheep,SM,LL,09/03/2008,12/05/2021,158,4,1,true_belief,move,move,,0.95
subj_26,Flamme,M,pyrenaen_sheep,SM,LL,09/03/2008,12/05/2021,158,4,2,training_wait,stay,stay,,10.17
subj_26,Flamme,M,pyrenaen_sheep,SM,LL,09/03/2008,12/05/2021,158,4,3,training_go,move,stay,,10.68
subj_26,Flamme,M,pyrenaen_sheep,SM,LL,09/03/2008,12/05/2021,158,4,4,false_belief,stay,move,,1.48
subj_26,Flamme,M,pyrenaen_sheep,SM,LL,09/03/2008,12/05/2021,158,4,5,training_go,move,move,,0.93
subj_26,Flamme,M,pyrenaen_sheep,SM,LL,09/03/2008,12/05/2021,158,4,6,training_wait,stay,stay,,10.35
subj_26,Flamme,M,pyrenaen_sheep,SM,LL,09/03/2008,12/05/2021,158,5,1,ignorant,,move,,1.03
subj_26,Flamme,M,pyrenaen_sheep,SM,LL,09/03/2008,12/05/2021,158,5,2,ignorant,,move,,1.1
subj_26,Flamme,M,pyrenaen_sheep,SM,LL,09/03/2008,12/05/2021,158,5,3,ignorant,,move,,1.03
subj_26,Flamme,M,pyrenaen_sheep,SM,LL,09/03/2008,12/05/2021,158,5,4,ignorant,,move,,0.88
subj_27,,,,,,,,0,1,1,false_belief,stay,,,
subj_27,,,,,,,,0,1,2,training_wait,stay,,,
subj_27,,,,,,,,0,1,3,training_go,move,,,
subj_27,,,,,,,,0,1,4,true_belief,move,,,
subj_27,,,,,,,,0,1,5,training_go,move,,,
subj_27,,,,,,,,0,1,6,training_wait,stay,,,
subj_27,,,,,,,,0,2,1,true_belief,move,,,
subj_27,,,,,,,,0,2,2,training_go,move,,,
subj_27,,,,,,,,0,2,3,training_wait,stay,,,
subj_27,,,,,,,,0,2,4,false_belief,stay,,,
subj_27,,,,,,,,0,2,5,training_wait,stay,,,
subj_27,,,,,,,,0,2,6,training_go,move,,,
subj_27,,,,,,,,0,3,1,false_belief,stay,,,
subj_27,,,,,,,,0,3,2,training_wait,stay,,,
subj_27,,,,,,,,0,3,3,training_go,move,,,
subj_27,,,,,,,,0,3,4,true_belief,move,,,
subj_27,,,,,,,,0,3,5,training_go,move,,,
subj_27,,,,,,,,0,3,6,training_wait,stay,,,
subj_27,,,,,,,,0,4,1,true_belief,move,,,
subj_27,,,,,,,,0,4,2,training_go,move,,,
subj_27,,,,,,,,0,4,3,training_wait,stay,,,
subj_27,,,,,,,,0,4,4,false_belief,stay,,,
subj_27,,,,,,,,0,4,5,training_wait,stay,,,
subj_27,,,,,,,,0,4,6,training_go,move,,,
subj_27,,,,,,,,0,5,1,ignorant,,,,
subj_27,,,,,,,,0,5,2,ignorant,,,,
subj_27,,,,,,,,0,5,3,ignorant,,,,
subj_27,,,,,,,,0,5,4,ignorant,,,,
subj_28,,,,,,,,0,1,1,true_belief,move,,,
subj_28,,,,,,,,0,1,2,training_go,move,,,
subj_28,,,,,,,,0,1,3,training_wait,stay,,,
subj_28,,,,,,,,0,1,4,false_belief,stay,,,
subj_28,,,,,,,,0,1,5,training_wait,stay,,,
subj_28,,,,,,,,0,1,6,training_go,move,,,
subj_28,,,,,,,,0,2,1,false_belief,stay,,,
subj_28,,,,,,,,0,2,2,training_wait,stay,,,
subj_28,,,,,,,,0,2,3,training_go,move,,,
subj_28,,,,,,,,0,2,4,true_belief,move,,,
subj_28,,,,,,,,0,2,5,training_go,move,,,
subj_28,,,,,,,,0,2,6,training_wait,stay,,,
subj_28,,,,,,,,0,3,1,true_belief,move,,,
subj_28,,,,,,,,0,3,2,training_go,move,,,
subj_28,,,,,,,,0,3,3,training_wait,stay,,,
subj_28,,,,,,,,0,3,4,false_belief,stay,,,
subj_28,,,,,,,,0,3,5,training_wait,stay,,,
subj_28,,,,,,,,0,3,6,training_go,move,,,
subj_28,,,,,,,,0,4,1,false_belief,stay,,,
subj_28,,,,,,,,0,4,2,training_wait,stay,,,
subj_28,,,,,,,,0,4,3,training_go,move,,,
subj_28,,,,,,,,0,4,4,true_belief,move,,,
subj_28,,,,,,,,0,4,5,training_go,move,,,
subj_28,,,,,,,,0,4,6,training_wait,stay,,,
subj_28,,,,,,,,0,5,1,ignorant,,,,
subj_28,,,,,,,,0,5,2,ignorant,,,,
subj_28,,,,,,,,0,5,3,ignorant,,,,
subj_28,,,,,,,,0,5,4,ignorant,,,,
subj_29,,,,,,,,0,1,1,false_belief,stay,,,
subj_29,,,,,,,,0,1,2,training_go,move,,,
subj_29,,,,,,,,0,1,3,training_wait,stay,,,
subj_29,,,,,,,,0,1,4,true_belief,move,,,
subj_29,,,,,,,,0,1,5,training_wait,stay,,,
subj_29,,,,,,,,0,1,6,training_go,move,,,
subj_29,,,,,,,,0,2,1,true_belief,move,,,
subj_29,,,,,,,,0,2,2,training_wait,stay,,,
subj_29,,,,,,,,0,2,3,training_go,move,,,
subj_29,,,,,,,,0,2,4,false_belief,stay,,,
subj_29,,,,,,,,0,2,5,training_go,move,,,
subj_29,,,,,,,,0,2,6,training_wait,stay,,,
subj_29,,,,,,,,0,3,1,true_belief,move,,,
subj_29,,,,,,,,0,3,2,training_go,move,,,
subj_29,,,,,,,,0,3,3,training_wait,stay,,,
subj_29,,,,,,,,0,3,4,false_belief,stay,,,
subj_29,,,,,,,,0,3,5,training_wait,stay,,,
subj_29,,,,,,,,0,3,6,training_go,move,,,
subj_29,,,,,,,,0,4,1,false_belief,stay,,,
subj_29,,,,,,,,0,4,2,training_wait,stay,,,
subj_29,,,,,,,,0,4,3,training_go,move,,,
subj_29,,,,,,,,0,4,4,true_belief,move,,,
subj_29,,,,,,,,0,4,5,training_go,move,,,
subj_29,,,,,,,,0,4,6,training_wait,stay,,,
subj_29,,,,,,,,0,5,1,ignorant,,,,
subj_29,,,,,,,,0,5,2,ignorant,,,,
subj_29,,,,,,,,0,5,3,ignorant,,,,
subj_29,,,,,,,,0,5,4,ignorant,,,,
subj_30,Luna22,F,mix_border_collie_white_swiss_shepherd,SM,LL,28/08/2015,14/05/2021,68,1,1,true_belief,move,move,,1.07
subj_30,Luna22,F,mix_border_collie_white_swiss_shepherd,SM,LL,28/08/2015,14/05/2021,68,1,2,training_wait,stay,stay,,10.13
subj_30,Luna22,F,mix_border_collie_white_swiss_shepherd,SM,LL,28/08/2015,14/05/2021,68,1,3,training_go,move,move,,1.17
subj_30,Luna22,F,mix_border_collie_white_swiss_shepherd,SM,LL,28/08/2015,14/05/2021,68,1,4,false_belief,stay,stay,,10.05
subj_30,Luna22,F,mix_border_collie_white_swiss_shepherd,SM,LL,28/08/2015,14/05/2021,68,1,5,training_go,move,move,,1.23
subj_30,Luna22,F,mix_border_collie_white_swiss_shepherd,SM,LL,28/08/2015,14/05/2021,68,1,6,training_wait,stay,stay,,9.97
subj_30,Luna22,F,mix_border_collie_white_swiss_shepherd,SM,LL,28/08/2015,14/05/2021,68,2,1,false_belief,stay,stay,,10.57
subj_30,Luna22,F,mix_border_collie_white_swiss_shepherd,SM,LL,28/08/2015,14/05/2021,68,2,2,training_go,move,move,,1.23
subj_30,Luna22,F,mix_border_collie_white_swiss_shepherd,SM,LL,28/08/2015,14/05/2021,68,2,3,training_wait,stay,move,,10.62
subj_30,Luna22,F,mix_border_collie_white_swiss_shepherd,SM,LL,28/08/2015,14/05/2021,68,2,4,true_belief,move,move,,2.17
subj_30,Luna22,F,mix_border_collie_white_swiss_shepherd,SM,LL,28/08/2015,14/05/2021,68,2,5,training_wait,stay,stay,,10.97
subj_30,Luna22,F,mix_border_collie_white_swiss_shepherd,SM,LL,28/08/2015,14/05/2021,68,2,6,training_go,move,move,,1.63
subj_30,Luna22,F,mix_border_collie_white_swiss_shepherd,SM,LL,28/08/2015,14/05/2021,68,3,1,false_belief,stay,stay,,10.4
subj_30,Luna22,F,mix_border_collie_white_swiss_shepherd,SM,LL,28/08/2015,14/05/2021,68,3,2,training_wait,stay,stay,,10.37
subj_30,Luna22,F,mix_border_collie_white_swiss_shepherd,SM,LL,28/08/2015,14/05/2021,68,3,3,training_go,move,move,,1.45
subj_30,Luna22,F,mix_border_collie_white_swiss_shepherd,SM,LL,28/08/2015,14/05/2021,68,3,4,true_belief,move,stay,,10.85
subj_30,Luna22,F,mix_border_collie_white_swiss_shepherd,SM,LL,28/08/2015,14/05/2021,68,3,5,training_go,move,move,,2.13
subj_30,Luna22,F,mix_border_collie_white_swiss_shepherd,SM,LL,28/08/2015,14/05/2021,68,3,6,training_wait,stay,stay,,10.02
subj_30,Luna22,F,mix_border_collie_white_swiss_shepherd,SM,LL,28/08/2015,14/05/2021,68,4,1,true_belief,move,stay,,10.85
subj_30,Luna22,F,mix_border_collie_white_swiss_shepherd,SM,LL,28/08/2015,14/05/2021,68,4,2,training_go,move,move,,1.7
subj_30,Luna22,F,mix_border_collie_white_swiss_shepherd,SM,LL,28/08/2015,14/05/2021,68,4,3,training_wait,stay,stay,,10.25
subj_30,Luna22,F,mix_border_collie_white_swiss_shepherd,SM,LL,28/08/2015,14/05/2021,68,4,4,false_belief,stay,move,,1.9
subj_30,Luna22,F,mix_border_collie_white_swiss_shepherd,SM,LL,28/08/2015,14/05/2021,68,4,5,training_wait,stay,stay,,10.03
subj_30,Luna22,F,mix_border_collie_white_swiss_shepherd,SM,LL,28/08/2015,14/05/2021,68,4,6,training_go,move,move,,1.7
subj_30,Luna22,F,mix_border_collie_white_swiss_shepherd,SM,LL,28/08/2015,14/05/2021,68,5,1,ignorant,,move,,2.67
subj_30,Luna22,F,mix_border_collie_white_swiss_shepherd,SM,LL,28/08/2015,14/05/2021,68,5,2,ignorant,,stay,,11.9
subj_30,Luna22,F,mix_border_collie_white_swiss_shepherd,SM,LL,28/08/2015,14/05/2021,68,5,3,ignorant,,stay,,10.92
subj_30,Luna22,F,mix_border_collie_white_swiss_shepherd,SM,LL,28/08/2015,14/05/2021,68,5,4,ignorant,,move,,1.35
subj_31,Nala9,F,border_collie,SM,MS,25/10/2014,11/05/2021,78,1,1,false_belief,stay,move,,1.27
subj_31,Nala9,F,border_collie,SM,MS,25/10/2014,11/05/2021,78,1,2,training_go,move,move,,1.5
subj_31,Nala9,F,border_collie,SM,MS,25/10/2014,11/05/2021,78,1,3,training_wait,stay,stay,,10.15
subj_31,Nala9,F,border_collie,SM,MS,25/10/2014,11/05/2021,78,1,4,true_belief,move,move,,1.38
subj_31,Nala9,F,border_collie,SM,MS,25/10/2014,11/05/2021,78,1,5,training_wait,stay,move,,1.68
subj_31,Nala9,F,border_collie,SM,MS,25/10/2014,11/05/2021,78,1,6,training_go,move,move,,1.95
subj_31,Nala9,F,border_collie,SM,MS,25/10/2014,11/05/2021,78,2,1,true_belief,move,move,,1.47
subj_31,Nala9,F,border_collie,SM,MS,25/10/2014,11/05/2021,78,2,2,training_wait,stay,stay,,10.23
subj_31,Nala9,F,border_collie,SM,MS,25/10/2014,11/05/2021,78,2,3,training_go,move,move,,1.17
subj_31,Nala9,F,border_collie,SM,MS,25/10/2014,11/05/2021,78,2,4,false_belief,stay,move,,1.38
subj_31,Nala9,F,border_collie,SM,MS,25/10/2014,11/05/2021,78,2,5,training_go,move,move,,2.2
subj_31,Nala9,F,border_collie,SM,MS,25/10/2014,11/05/2021,78,2,6,training_wait,stay,stay,,10.1
subj_31,Nala9,F,border_collie,SM,MS,25/10/2014,11/05/2021,78,3,1,false_belief,stay,move,,1.42
subj_31,Nala9,F,border_collie,SM,MS,25/10/2014,11/05/2021,78,3,2,training_go,move,move,,1.97
subj_31,Nala9,F,border_collie,SM,MS,25/10/2014,11/05/2021,78,3,3,training_wait,stay,stay,,11
subj_31,Nala9,F,border_collie,SM,MS,25/10/2014,11/05/2021,78,3,4,true_belief,move,stay,,10.73
subj_31,Nala9,F,border_collie,SM,MS,25/10/2014,11/05/2021,78,3,5,training_wait,stay,stay,,10.15
subj_31,Nala9,F,border_collie,SM,MS,25/10/2014,11/05/2021,78,3,6,training_go,move,move,,2.02
subj_31,Nala9,F,border_collie,SM,MS,25/10/2014,11/05/2021,78,4,1,true_belief,move,stay,,11.17
subj_31,Nala9,F,border_collie,SM,MS,25/10/2014,11/05/2021,78,4,2,training_wait,stay,stay,,10.18
subj_31,Nala9,F,border_collie,SM,MS,25/10/2014,11/05/2021,78,4,3,training_go,move,move,,2.38
subj_31,Nala9,F,border_collie,SM,MS,25/10/2014,11/05/2021,78,4,4,false_belief,stay,move,,1.72
subj_31,Nala9,F,border_collie,SM,MS,25/10/2014,11/05/2021,78,4,5,training_go,move,stay,,10.17
subj_31,Nala9,F,border_collie,SM,MS,25/10/2014,11/05/2021,78,4,6,training_wait,stay,stay,,11.38
subj_31,Nala9,F,border_collie,SM,MS,25/10/2014,11/05/2021,78,5,1,ignorant,,stay,,11.55
subj_31,Nala9,F,border_collie,SM,MS,25/10/2014,11/05/2021,78,5,2,ignorant,,stay,,10.68
subj_31,Nala9,F,border_collie,SM,MS,25/10/2014,11/05/2021,78,5,3,ignorant,,stay,,11.6
subj_31,Nala9,F,border_collie,SM,MS,25/10/2014,11/05/2021,78,5,4,ignorant,,stay,,11.12
subj_32,Nussy,F,belgian_shepherd_dog,SM,MS,16/09/2017,11/05/2021,43,1,1,true_belief,move,move,,4.62
subj_32,Nussy,F,belgian_shepherd_dog,SM,MS,16/09/2017,11/05/2021,43,1,2,training_wait,stay,stay,,9.92
subj_32,Nussy,F,belgian_shepherd_dog,SM,MS,16/09/2017,11/05/2021,43,1,3,training_go,move,move,,2.67
subj_32,Nussy,F,belgian_shepherd_dog,SM,MS,16/09/2017,11/05/2021,43,1,4,false_belief,stay,move,,2.97
subj_32,Nussy,F,belgian_shepherd_dog,SM,MS,16/09/2017,11/05/2021,43,1,5,training_go,move,stay,,10.32
subj_32,Nussy,F,belgian_shepherd_dog,SM,MS,16/09/2017,11/05/2021,43,1,6,training_wait,stay,stay,,8.47
subj_32,Nussy,F,belgian_shepherd_dog,SM,MS,16/09/2017,11/05/2021,43,2,1,false_belief,stay,move,,2.1
subj_32,Nussy,F,belgian_shepherd_dog,SM,MS,16/09/2017,11/05/2021,43,2,2,training_go,move,stay,,11.07
subj_32,Nussy,F,belgian_shepherd_dog,SM,MS,16/09/2017,11/05/2021,43,2,3,training_wait,stay,stay,,10.32
subj_32,Nussy,F,belgian_shepherd_dog,SM,MS,16/09/2017,11/05/2021,43,2,4,true_belief,move,stay,,11.25
subj_32,Nussy,F,belgian_shepherd_dog,SM,MS,16/09/2017,11/05/2021,43,2,5,training_wait,stay,move,,3.52
subj_32,Nussy,F,belgian_shepherd_dog,SM,MS,16/09/2017,11/05/2021,43,2,6,training_go,move,stay,,11.82
subj_32,Nussy,F,belgian_shepherd_dog,SM,MS,16/09/2017,11/05/2021,43,3,1,true_belief,move,move,,3.97
subj_32,Nussy,F,belgian_shepherd_dog,SM,MS,16/09/2017,11/05/2021,43,3,2,training_wait,stay,stay,,9.73
subj_32,Nussy,F,belgian_shepherd_dog,SM,MS,16/09/2017,11/05/2021,43,3,3,training_go,move,move,,2.3
subj_32,Nussy,F,belgian_shepherd_dog,SM,MS,16/09/2017,11/05/2021,43,3,4,false_belief,stay,move,,3.48
subj_32,Nussy,F,belgian_shepherd_dog,SM,MS,16/09/2017,11/05/2021,43,3,5,training_go,move,stay,,10.33
subj_32,Nussy,F,belgian_shepherd_dog,SM,MS,16/09/2017,11/05/2021,43,3,6,training_wait,stay,stay,,9.95
subj_32,Nussy,F,belgian_shepherd_dog,SM,MS,16/09/2017,11/05/2021,43,4,1,false_belief,stay,stay,,10.43
subj_32,Nussy,F,belgian_shepherd_dog,SM,MS,16/09/2017,11/05/2021,43,4,2,training_go,move,move,,3.2
subj_32,Nussy,F,belgian_shepherd_dog,SM,MS,16/09/2017,11/05/2021,43,4,3,training_wait,stay,stay,,10.1
subj_32,Nussy,F,belgian_shepherd_dog,SM,MS,16/09/2017,11/05/2021,43,4,4,true_belief,move,stay,,11.05
subj_32,Nussy,F,belgian_shepherd_dog,SM,MS,16/09/2017,11/05/2021,43,4,5,training_wait,stay,stay,,10
subj_32,Nussy,F,belgian_shepherd_dog,SM,MS,16/09/2017,11/05/2021,43,4,6,training_go,move,stay,,10.22
subj_32,Nussy,F,belgian_shepherd_dog,SM,MS,16/09/2017,11/05/2021,43,5,1,ignorant,,move,,7.57
subj_32,Nussy,F,belgian_shepherd_dog,SM,MS,16/09/2017,11/05/2021,43,5,2,ignorant,,move,,9.68
subj_32,Nussy,F,belgian_shepherd_dog,SM,MS,16/09/2017,11/05/2021,43,5,3,ignorant,,move,,8.72
subj_32,Nussy,F,belgian_shepherd_dog,SM,MS,16/09/2017,11/05/2021,43,5,4,ignorant,,stay,,10.95
subj_33,,,,,,,,0,1,1,false_belief,stay,,,
subj_33,,,,,,,,0,1,2,training_wait,stay,,,
subj_33,,,,,,,,0,1,3,training_go,move,,,
subj_33,,,,,,,,0,1,4,true_belief,move,,,
subj_33,,,,,,,,0,1,5,training_go,move,,,
subj_33,,,,,,,,0,1,6,training_wait,stay,,,
subj_33,,,,,,,,0,2,1,true_belief,move,,,
subj_33,,,,,,,,0,2,2,training_go,move,,,
subj_33,,,,,,,,0,2,3,training_wait,stay,,,
subj_33,,,,,,,,0,2,4,false_belief,stay,,,
subj_33,,,,,,,,0,2,5,training_wait,stay,,,
subj_33,,,,,,,,0,2,6,training_go,move,,,
subj_33,,,,,,,,0,3,1,true_belief,move,,,
subj_33,,,,,,,,0,3,2,training_wait,stay,,,
subj_33,,,,,,,,0,3,3,training_go,move,,,
subj_33,,,,,,,,0,3,4,false_belief,stay,,,
subj_33,,,,,,,,0,3,5,training_go,move,,,
subj_33,,,,,,,,0,3,6,training_wait,stay,,,
subj_33,,,,,,,,0,4,1,false_belief,stay,,,
subj_33,,,,,,,,0,4,2,training_go,move,,,
subj_33,,,,,,,,0,4,3,training_wait,stay,,,
subj_33,,,,,,,,0,4,4,true_belief,move,,,
subj_33,,,,,,,,0,4,5,training_wait,stay,,,
subj_33,,,,,,,,0,4,6,training_go,move,,,
subj_33,,,,,,,,0,5,1,ignorant,,,,
subj_33,,,,,,,,0,5,2,ignorant,,,,
subj_33,,,,,,,,0,5,3,ignorant,,,,
subj_33,,,,,,,,0,5,4,ignorant,,,,
subj_34,Zoomie,F,australian_shepherd,SM,LL,18/03/2017,13/05/2021,49,1,1,true_belief,move,stay,,11.7
subj_34,Zoomie,F,australian_shepherd,SM,LL,18/03/2017,13/05/2021,49,1,2,training_go,move,move,,1.2
subj_34,Zoomie,F,australian_shepherd,SM,LL,18/03/2017,13/05/2021,49,1,3,training_wait,stay,stay,,10.7
subj_34,Zoomie,F,australian_shepherd,SM,LL,18/03/2017,13/05/2021,49,1,4,false_belief,stay,move,,1.6
subj_34,Zoomie,F,australian_shepherd,SM,LL,18/03/2017,13/05/2021,49,1,5,training_wait,stay,stay,,11.2
subj_34,Zoomie,F,australian_shepherd,SM,LL,18/03/2017,13/05/2021,49,1,6,training_go,move,move,,1.7
subj_34,Zoomie,F,australian_shepherd,SM,LL,18/03/2017,13/05/2021,49,2,1,false_belief,stay,stay,,9.9
subj_34,Zoomie,F,australian_shepherd,SM,LL,18/03/2017,13/05/2021,49,2,2,training_wait,stay,stay,,10.4
subj_34,Zoomie,F,australian_shepherd,SM,LL,18/03/2017,13/05/2021,49,2,3,training_go,move,stay,,12
subj_34,Zoomie,F,australian_shepherd,SM,LL,18/03/2017,13/05/2021,49,2,4,true_belief,move,stay,,11.1
subj_34,Zoomie,F,australian_shepherd,SM,LL,18/03/2017,13/05/2021,49,2,5,training_go,move,stay,,10.6
subj_34,Zoomie,F,australian_shepherd,SM,LL,18/03/2017,13/05/2021,49,2,6,training_wait,stay,stay,,10.4
subj_34,Zoomie,F,australian_shepherd,SM,LL,18/03/2017,13/05/2021,49,3,1,false_belief,stay,stay,,10.4
subj_34,Zoomie,F,australian_shepherd,SM,LL,18/03/2017,13/05/2021,49,3,2,training_go,move,move,,1.6
subj_34,Zoomie,F,australian_shepherd,SM,LL,18/03/2017,13/05/2021,49,3,3,training_wait,stay,stay,,11.2
subj_34,Zoomie,F,australian_shepherd,SM,LL,18/03/2017,13/05/2021,49,3,4,true_belief,move,move,,2.1
subj_34,Zoomie,F,australian_shepherd,SM,LL,18/03/2017,13/05/2021,49,3,5,training_wait,stay,stay,,10.2
subj_34,Zoomie,F,australian_shepherd,SM,LL,18/03/2017,13/05/2021,49,3,6,training_go,move,move,,5.8
subj_34,Zoomie,F,australian_shepherd,SM,LL,18/03/2017,13/05/2021,49,4,1,true_belief,move,move,,2.4
subj_34,Zoomie,F,australian_shepherd,SM,LL,18/03/2017,13/05/2021,49,4,2,training_wait,stay,stay,,10.5
subj_34,Zoomie,F,australian_shepherd,SM,LL,18/03/2017,13/05/2021,49,4,3,training_go,move,stay,,10.7
subj_34,Zoomie,F,australian_shepherd,SM,LL,18/03/2017,13/05/2021,49,4,4,false_belief,stay,move,,1.6
subj_34,Zoomie,F,australian_shepherd,SM,LL,18/03/2017,13/05/2021,49,4,5,training_go,move,stay,,10.6
subj_34,Zoomie,F,australian_shepherd,SM,LL,18/03/2017,13/05/2021,49,4,6,training_wait,stay,stay,,10.4
subj_34,Zoomie,F,australian_shepherd,SM,LL,18/03/2017,13/05/2021,49,5,1,ignorant,,stay,,11.3
subj_34,Zoomie,F,australian_shepherd,SM,LL,18/03/2017,13/05/2021,49,5,2,ignorant,,stay,,11
subj_34,Zoomie,F,australian_shepherd,SM,LL,18/03/2017,13/05/2021,49,5,3,ignorant,,stay,,10.9
subj_34,Zoomie,F,australian_shepherd,SM,LL,18/03/2017,13/05/2021,49,5,4,ignorant,,stay,,10.8
subj_35,Lili3,F,labrador_retriever,SM,LL,07/05/2014,12/05/2021,84,1,1,false_belief,stay,move,,1.5
subj_35,Lili3,F,labrador_retriever,SM,LL,07/05/2014,12/05/2021,84,1,2,training_wait,stay,stay,,11.03
subj_35,Lili3,F,labrador_retriever,SM,LL,07/05/2014,12/05/2021,84,1,3,training_go,move,stay,,10.77
subj_35,Lili3,F,labrador_retriever,SM,LL,07/05/2014,12/05/2021,84,1,4,true_belief,move,move,,2.55
subj_35,Lili3,F,labrador_retriever,SM,LL,07/05/2014,12/05/2021,84,1,5,training_go,move,stay,,10.75
subj_35,Lili3,F,labrador_retriever,SM,LL,07/05/2014,12/05/2021,84,1,6,training_wait,stay,stay,,10.72
subj_35,Lili3,F,labrador_retriever,SM,LL,07/05/2014,12/05/2021,84,2,1,true_belief,move,move,,2.18
subj_35,Lili3,F,labrador_retriever,SM,LL,07/05/2014,12/05/2021,84,2,2,training_go,move,move,,2.33
subj_35,Lili3,F,labrador_retriever,SM,LL,07/05/2014,12/05/2021,84,2,3,training_wait,stay,stay,,11.97
subj_35,Lili3,F,labrador_retriever,SM,LL,07/05/2014,12/05/2021,84,2,4,false_belief,stay,move,,1.65
subj_35,Lili3,F,labrador_retriever,SM,LL,07/05/2014,12/05/2021,84,2,5,training_wait,stay,stay,,10.08
subj_35,Lili3,F,labrador_retriever,SM,LL,07/05/2014,12/05/2021,84,2,6,training_go,move,stay,,10.75
subj_35,Lili3,F,labrador_retriever,SM,LL,07/05/2014,12/05/2021,84,3,1,false_belief,stay,move,,2.3
subj_35,Lili3,F,labrador_retriever,SM,LL,07/05/2014,12/05/2021,84,3,2,training_wait,stay,stay,,10.92
subj_35,Lili3,F,labrador_retriever,SM,LL,07/05/2014,12/05/2021,84,3,3,training_go,move,stay,,10.65
subj_35,Lili3,F,labrador_retriever,SM,LL,07/05/2014,12/05/2021,84,3,4,true_belief,move,stay,,10.85
subj_35,Lili3,F,labrador_retriever,SM,LL,07/05/2014,12/05/2021,84,3,5,training_go,move,stay,,10.27
subj_35,Lili3,F,labrador_retriever,SM,LL,07/05/2014,12/05/2021,84,3,6,training_wait,stay,stay,,10.57
subj_35,Lili3,F,labrador_retriever,SM,LL,07/05/2014,12/05/2021,84,4,1,true_belief,move,stay,,10.88
subj_35,Lili3,F,labrador_retriever,SM,LL,07/05/2014,12/05/2021,84,4,2,training_go,move,stay,,10.78
subj_35,Lili3,F,labrador_retriever,SM,LL,07/05/2014,12/05/2021,84,4,3,training_wait,stay,stay,,11.05
subj_35,Lili3,F,labrador_retriever,SM,LL,07/05/2014,12/05/2021,84,4,4,false_belief,stay,stay,,10.43
subj_35,Lili3,F,labrador_retriever,SM,LL,07/05/2014,12/05/2021,84,4,5,training_wait,stay,stay,,10.25
subj_35,Lili3,F,labrador_retriever,SM,LL,07/05/2014,12/05/2021,84,4,6,training_go,move,stay,,10.52
subj_35,Lili3,F,labrador_retriever,SM,LL,07/05/2014,12/05/2021,84,5,1,ignorant,,stay,,10.87
subj_35,Lili3,F,labrador_retriever,SM,LL,07/05/2014,12/05/2021,84,5,2,ignorant,,move,,2.28
subj_35,Lili3,F,labrador_retriever,SM,LL,07/05/2014,12/05/2021,84,5,3,ignorant,,stay,,10.97
subj_35,Lili3,F,labrador_retriever,SM,LL,07/05/2014,12/05/2021,84,5,4,ignorant,,stay,,11.55
subj_36,Leni2,F,australian_shepherd,SM,LL,30/06/2012,13/05/2021,106,1,1,true_belief,move,move,,1.43
subj_36,Leni2,F,australian_shepherd,SM,LL,30/06/2012,13/05/2021,106,1,2,training_go,move,move,,0.92
subj_36,Leni2,F,australian_shepherd,SM,LL,30/06/2012,13/05/2021,106,1,3,training_wait,stay,move,,1.27
subj_36,Leni2,F,australian_shepherd,SM,LL,30/06/2012,13/05/2021,106,1,4,false_belief,stay,move,,1.57
subj_36,Leni2,F,australian_shepherd,SM,LL,30/06/2012,13/05/2021,106,1,5,training_wait,stay,stay,,11.05
subj_36,Leni2,F,australian_shepherd,SM,LL,30/06/2012,13/05/2021,106,1,6,training_go,move,stay,,11.45
subj_36,Leni2,F,australian_shepherd,SM,LL,30/06/2012,13/05/2021,106,2,1,false_belief,stay,stay,,11.75
subj_36,Leni2,F,australian_shepherd,SM,LL,30/06/2012,13/05/2021,106,2,2,training_wait,stay,move,,2.12
subj_36,Leni2,F,australian_shepherd,SM,LL,30/06/2012,13/05/2021,106,2,3,training_go,move,stay,,12.57
subj_36,Leni2,F,australian_shepherd,SM,LL,30/06/2012,13/05/2021,106,2,4,true_belief,move,stay,,11.02
subj_36,Leni2,F,australian_shepherd,SM,LL,30/06/2012,13/05/2021,106,2,5,training_go,move,move,,1.42
subj_36,Leni2,F,australian_shepherd,SM,LL,30/06/2012,13/05/2021,106,2,6,training_wait,stay,stay,,11.2
subj_36,Leni2,F,australian_shepherd,SM,LL,30/06/2012,13/05/2021,106,3,1,true_belief,move,move,,1.48
subj_36,Leni2,F,australian_shepherd,SM,LL,30/06/2012,13/05/2021,106,3,2,training_go,move,move,,1.03
subj_36,Leni2,F,australian_shepherd,SM,LL,30/06/2012,13/05/2021,106,3,3,training_wait,stay,stay,,10.23
subj_36,Leni2,F,australian_shepherd,SM,LL,30/06/2012,13/05/2021,106,3,4,false_belief,stay,move,,1.1
subj_36,Leni2,F,australian_shepherd,SM,LL,30/06/2012,13/05/2021,106,3,5,training_wait,stay,stay,,10.5
subj_36,Leni2,F,australian_shepherd,SM,LL,30/06/2012,13/05/2021,106,3,6,training_go,move,stay,,9.93
subj_36,Leni2,F,australian_shepherd,SM,LL,30/06/2012,13/05/2021,106,4,1,false_belief,stay,move,,1.18
subj_36,Leni2,F,australian_shepherd,SM,LL,30/06/2012,13/05/2021,106,4,2,training_wait,stay,stay,,10.48
subj_36,Leni2,F,australian_shepherd,SM,LL,30/06/2012,13/05/2021,106,4,3,training_go,move,move,,1.37
subj_36,Leni2,F,australian_shepherd,SM,LL,30/06/2012,13/05/2021,106,4,4,true_belief,move,move,,0.87
subj_36,Leni2,F,australian_shepherd,SM,LL,30/06/2012,13/05/2021,106,4,5,training_go,move,move,,1.35
subj_36,Leni2,F,australian_shepherd,SM,LL,30/06/2012,13/05/2021,106,4,6,training_wait,stay,move,,1.87
subj_36,Leni2,F,australian_shepherd,SM,LL,30/06/2012,13/05/2021,106,5,1,ignorant,,move,,1.12
subj_36,Leni2,F,australian_shepherd,SM,LL,30/06/2012,13/05/2021,106,5,2,ignorant,,move,,1.18
subj_36,Leni2,F,australian_shepherd,SM,LL,30/06/2012,13/05/2021,106,5,3,ignorant,,move,,1.22
subj_36,Leni2,F,australian_shepherd,SM,LL,30/06/2012,13/05/2021,106,5,4,ignorant,,move,,1.17
subj_37,Dunni,F,miniature_pinscher,SM,MS,21/02/2020,12/05/2021,14,1,1,false_belief,stay,move,,0.75
subj_37,Dunni,F,miniature_pinscher,SM,MS,21/02/2020,12/05/2021,14,1,2,training_go,move,move,,0.58
subj_37,Dunni,F,miniature_pinscher,SM,MS,21/02/2020,12/05/2021,14,1,3,training_wait,stay,stay,,10.33
subj_37,Dunni,F,miniature_pinscher,SM,MS,21/02/2020,12/05/2021,14,1,4,true_belief,move,move,,1
subj_37,Dunni,F,miniature_pinscher,SM,MS,21/02/2020,12/05/2021,14,1,5,training_wait,stay,stay,,10.4
subj_37,Dunni,F,miniature_pinscher,SM,MS,21/02/2020,12/05/2021,14,1,6,training_go,move,move,,0.52
subj_37,Dunni,F,miniature_pinscher,SM,MS,21/02/2020,12/05/2021,14,2,1,true_belief,move,move,,0.57
subj_37,Dunni,F,miniature_pinscher,SM,MS,21/02/2020,12/05/2021,14,2,2,training_wait,stay,move,,0.98
subj_37,Dunni,F,miniature_pinscher,SM,MS,21/02/2020,12/05/2021,14,2,3,training_go,move,move,,0.55
subj_37,Dunni,F,miniature_pinscher,SM,MS,21/02/2020,12/05/2021,14,2,4,false_belief,stay,move,,0.6
subj_37,Dunni,F,miniature_pinscher,SM,MS,21/02/2020,12/05/2021,14,2,5,training_go,move,stay,,11.02
subj_37,Dunni,F,miniature_pinscher,SM,MS,21/02/2020,12/05/2021,14,2,6,training_wait,stay,stay,,10.28
subj_37,Dunni,F,miniature_pinscher,SM,MS,21/02/2020,12/05/2021,14,3,1,true_belief,move,move,,0.62
subj_37,Dunni,F,miniature_pinscher,SM,MS,21/02/2020,12/05/2021,14,3,2,training_go,move,move,,0.62
subj_37,Dunni,F,miniature_pinscher,SM,MS,21/02/2020,12/05/2021,14,3,3,training_wait,stay,move,,1
subj_37,Dunni,F,miniature_pinscher,SM,MS,21/02/2020,12/05/2021,14,3,4,false_belief,stay,move,,1.05
subj_37,Dunni,F,miniature_pinscher,SM,MS,21/02/2020,12/05/2021,14,3,5,training_wait,stay,stay,,10.23
subj_37,Dunni,F,miniature_pinscher,SM,MS,21/02/2020,12/05/2021,14,3,6,training_go,move,stay,,10.83
subj_37,Dunni,F,miniature_pinscher,SM,MS,21/02/2020,12/05/2021,14,4,1,false_belief,stay,stay,,10.37
subj_37,Dunni,F,miniature_pinscher,SM,MS,21/02/2020,12/05/2021,14,4,2,training_wait,stay,stay,,10.22
subj_37,Dunni,F,miniature_pinscher,SM,MS,21/02/2020,12/05/2021,14,4,3,training_go,move,move,,0.57
subj_37,Dunni,F,miniature_pinscher,SM,MS,21/02/2020,12/05/2021,14,4,4,true_belief,move,stay,,11.27
subj_37,Dunni,F,miniature_pinscher,SM,MS,21/02/2020,12/05/2021,14,4,5,training_go,move,move,,0.78
subj_37,Dunni,F,miniature_pinscher,SM,MS,21/02/2020,12/05/2021,14,4,6,training_wait,stay,stay,,10.32
subj_37,Dunni,F,miniature_pinscher,SM,MS,21/02/2020,12/05/2021,14,5,1,ignorant,,move,,0.77
subj_37,Dunni,F,miniature_pinscher,SM,MS,21/02/2020,12/05/2021,14,5,2,ignorant,,move,,0.75
subj_37,Dunni,F,miniature_pinscher,SM,MS,21/02/2020,12/05/2021,14,5,3,ignorant,,stay,,11.43
subj_37,Dunni,F,miniature_pinscher,SM,MS,21/02/2020,12/05/2021,14,5,4,ignorant,,stay,,12.28
subj_38,,,,,,,,0,1,1,true_belief,move,,,
subj_38,,,,,,,,0,1,2,training_wait,stay,,,
subj_38,,,,,,,,0,1,3,training_go,move,,,
subj_38,,,,,,,,0,1,4,false_belief,stay,,,
subj_38,,,,,,,,0,1,5,training_go,move,,,
subj_38,,,,,,,,0,1,6,training_wait,stay,,,
subj_38,,,,,,,,0,2,1,false_belief,stay,,,
subj_38,,,,,,,,0,2,2,training_go,move,,,
subj_38,,,,,,,,0,2,3,training_wait,stay,,,
subj_38,,,,,,,,0,2,4,true_belief,move,,,
subj_38,,,,,,,,0,2,5,training_wait,stay,,,
subj_38,,,,,,,,0,2,6,training_go,move,,,
subj_38,,,,,,,,0,3,1,false_belief,stay,,,
subj_38,,,,,,,,0,3,2,training_wait,stay,,,
subj_38,,,,,,,,0,3,3,training_go,move,,,
subj_38,,,,,,,,0,3,4,true_belief,move,,,
subj_38,,,,,,,,0,3,5,training_go,move,,,
subj_38,,,,,,,,0,3,6,training_wait,stay,,,
subj_38,,,,,,,,0,4,1,true_belief,move,,,
subj_38,,,,,,,,0,4,2,training_go,move,,,
subj_38,,,,,,,,0,4,3,training_wait,stay,,,
subj_38,,,,,,,,0,4,4,false_belief,stay,,,
subj_38,,,,,,,,0,4,5,training_wait,stay,,,
subj_38,,,,,,,,0,4,6,training_go,move,,,
subj_38,,,,,,,,0,5,1,ignorant,,,,
subj_38,,,,,,,,0,5,2,ignorant,,,,
subj_38,,,,,,,,0,5,3,ignorant,,,,
subj_38,,,,,,,,0,5,4,ignorant,,,,
subj_39,,,,,,,,0,1,1,false_belief,stay,,,
subj_39,,,,,,,,0,1,2,training_go,move,,,
subj_39,,,,,,,,0,1,3,training_wait,stay,,,
subj_39,,,,,,,,0,1,4,true_belief,move,,,
subj_39,,,,,,,,0,1,5,training_wait,stay,,,
subj_39,,,,,,,,0,1,6,training_go,move,,,
subj_39,,,,,,,,0,2,1,true_belief,move,,,
subj_39,,,,,,,,0,2,2,training_wait,stay,,,
subj_39,,,,,,,,0,2,3,training_go,move,,,
subj_39,,,,,,,,0,2,4,false_belief,stay,,,
subj_39,,,,,,,,0,2,5,training_go,move,,,
subj_39,,,,,,,,0,2,6,training_wait,stay,,,
subj_39,,,,,,,,0,3,1,false_belief,stay,,,
subj_39,,,,,,,,0,3,2,training_go,move,,,
subj_39,,,,,,,,0,3,3,training_wait,stay,,,
subj_39,,,,,,,,0,3,4,true_belief,move,,,
subj_39,,,,,,,,0,3,5,training_wait,stay,,,
subj_39,,,,,,,,0,3,6,training_go,move,,,
subj_39,,,,,,,,0,4,1,true_belief,move,,,
subj_39,,,,,,,,0,4,2,training_wait,stay,,,
subj_39,,,,,,,,0,4,3,training_go,move,,,
subj_39,,,,,,,,0,4,4,false_belief,stay,,,
subj_39,,,,,,,,0,4,5,training_go,move,,,
subj_39,,,,,,,,0,4,6,training_wait,stay,,,
subj_39,,,,,,,,0,5,1,ignorant,,,,
subj_39,,,,,,,,0,5,2,ignorant,,,,
subj_39,,,,,,,,0,5,3,ignorant,,,,
subj_39,,,,,,,,0,5,4,ignorant,,,,
subj_40,,,,,,,,0,1,1,true_belief,move,,,
subj_40,,,,,,,,0,1,2,training_wait,stay,,,
subj_40,,,,,,,,0,1,3,training_go,move,,,
subj_40,,,,,,,,0,1,4,false_belief,stay,,,
subj_40,,,,,,,,0,1,5,training_go,move,,,
subj_40,,,,,,,,0,1,6,training_wait,stay,,,
subj_40,,,,,,,,0,2,1,false_belief,stay,,,
subj_40,,,,,,,,0,2,2,training_go,move,,,
subj_40,,,,,,,,0,2,3,training_wait,stay,,,
subj_40,,,,,,,,0,2,4,true_belief,move,,,
subj_40,,,,,,,,0,2,5,training_wait,stay,,,
subj_40,,,,,,,,0,2,6,training_go,move,,,
subj_40,,,,,,,,0,3,1,true_belief,move,,,
subj_40,,,,,,,,0,3,2,training_wait,stay,,,
subj_40,,,,,,,,0,3,3,training_go,move,,,
subj_40,,,,,,,,0,3,4,false_belief,stay,,,
subj_40,,,,,,,,0,3,5,training_go,move,,,
subj_40,,,,,,,,0,3,6,training_wait,stay,,,
subj_40,,,,,,,,0,4,1,false_belief,stay,,,
subj_40,,,,,,,,0,4,2,training_go,move,,,
subj_40,,,,,,,,0,4,3,training_wait,stay,,,
subj_40,,,,,,,,0,4,4,true_belief,move,,,
subj_40,,,,,,,,0,4,5,training_wait,stay,,,
subj_40,,,,,,,,0,4,6,training_go,move,,,
subj_40,,,,,,,,0,5,1,ignorant,,,,
subj_40,,,,,,,,0,5,2,ignorant,,,,
subj_40,,,,,,,,0,5,3,ignorant,,,,
subj_40,,,,,,,,0,5,4,ignorant,,,,
